"ID","acc","accept_status","accuracy","age","average_response_time","avg_rt","background","bidi","block","buttons","canvas_backend","checkbox_status","clock_backend","color_backend","colour","compensation","congruency","coordinates","correct","correct_answer","correct_button_block","correct_new_keyboard_response","count_C","count_I","count_Instruction","count_Practice_start","count_age","count_answer","count_blank","count_blank2","count_blank3","count_blank_4","count_break","count_break2","count_button_block","count_consent_form","count_correct_feedback","count_cross","count_end","count_experiment","count_feedback","count_gender","count_incorrect_feedback","count_information_sheet","count_logger","count_new_keyboard_response","count_practice","count_stroop","count_target","datetime","description","disable_garbage_collection","expected","experiment_path","font_bold","font_family","font_italic","font_size","font_underline","foreground","form_clicks","form_response","form_var","fullscreen","gender","height","keyboard_backend","logfile","mouse_backend","opensesame_codename","opensesame_version","repeat_cycle","response","response_answer","response_button_block","response_new_keyboard_response","response_time","response_time_answer","response_time_button_block","response_time_new_keyboard_response","round_decimals","sampler_backend","sound_buf_size","sound_channels","sound_freq","sound_sample_size","start","subject_nr","subject_parity","time_C","time_I","time_Instruction","time_Practice_start","time_age","time_answer","time_blank","time_blank2","time_blank3","time_blank_4","time_break","time_break2","time_button_block","time_consent_form","time_correct_feedback","time_cross","time_end","time_experiment","time_feedback","time_gender","time_incorrect_feedback","time_information_sheet","time_logger","time_new_keyboard_response","time_practice","time_stroop","time_target","title","total_correct","total_response_time","total_responses","uniform_coordinates","width","word"
"5","75","yes","75","26","15313","15313","#ffffff","no","practice","v;b;n;m","legacy","I have read and understood the information shown above","legacy","legacy","blue","0","inc","uniform","0","0","1","NA","0","0","0","0","0","0","0","0","0","0","0","0","5","0","0","0","0","0","NA","0","0","0","0","NA","0","0","0","12/06/16 15:01:58","The main experiment item","yes","b","W:\Sussex\Consciousness and control\Exp 1 - stroop suggestion and PCE\Methods\Palfi_script","no","mono","no","18","no","black","no","Ok","NA","no","Female","768","legacy","C:/Users/User/Dropbox/Sussex/Consciousness and control/Exp 1 - stroop suggestion and PCE/Methods/Palfi_script/laptop_size/subject-3.csv","legacy","Interactive Ising","3.0.2","0","n","n","space","NA","1001","1001","3262","NA","2","legacy","1024","2","48000","-16","experiment","3","odd","NA","NA","90019","140983","80201","144918","144344","144883","145922","146913","NA","NA","140983","69482","NA","144379","NA","2370","NA","NA","146160","2371","147363","NA","144246","144342","144918","Stroop CI","3","61253","4","yes","1366","GREEN"
"1","60","yes","60","26","12650","12650","#ffffff","no","practice","v;b;n;m","legacy","I have read and understood the information shown above","legacy","legacy","red","0","inc","uniform","0","0","1","NA","0","0","0","0","0","1","1","1","1","1","0","0","5","0","1","1","0","0","NA","0","1","0","1","NA","0","1","1","12/06/16 15:01:58","The main experiment item","yes","v","W:\Sussex\Consciousness and control\Exp 1 - stroop suggestion and PCE\Methods\Palfi_script","no","mono","no","18","no","black","no","Ok","NA","no","Female","768","legacy","C:/Users/User/Dropbox/Sussex/Consciousness and control/Exp 1 - stroop suggestion and PCE/Methods/Palfi_script/laptop_size/subject-3.csv","legacy","Interactive Ising","3.0.2","0","None","None","space","NA","2000","2000","3262","NA","2","legacy","1024","2","48000","-16","experiment","3","odd","NA","NA","90019","140983","80201","148153","147580","148118","150155","151145","NA","NA","140983","69482","NA","147616","NA","2370","NA","NA","150393","2371","151595","NA","144246","147578","148153","Stroop CI","3","63253","5","yes","1366","BLUE"
"12","66.6666666667","yes","66.6666666667","26","10772","10772","#ffffff","no","practice","v;b;n;m","legacy","I have read and understood the information shown above","legacy","legacy","#ffef36","0","inc","uniform","1","1","1","NA","0","0","0","0","0","2","2","2","2","2","0","0","5","0","2","2","0","0","NA","0","2","0","2","NA","0","2","2","12/06/16 15:01:58","The main experiment item","yes","m","W:\Sussex\Consciousness and control\Exp 1 - stroop suggestion and PCE\Methods\Palfi_script","no","mono","no","18","no","black","no","Ok","NA","no","Female","768","legacy","C:/Users/User/Dropbox/Sussex/Consciousness and control/Exp 1 - stroop suggestion and PCE/Methods/Palfi_script/laptop_size/subject-3.csv","legacy","Interactive Ising","3.0.2","0","m","m","space","NA","1382","1382","3262","NA","2","legacy","1024","2","48000","-16","experiment","3","odd","NA","NA","90019","140983","80201","152363","151791","152328","153748","154736","NA","NA","140983","69482","153984","151826","NA","2370","NA","NA","150393","2371","155186","NA","144246","151789","152363","Stroop CI","4","64635","6","yes","1366","GREEN"
"15","71.4285714286","yes","71.4285714286","26","9371","9371","#ffffff","no","practice","v;b;n;m","legacy","I have read and understood the information shown above","legacy","legacy","red","0","con","uniform","1","1","1","NA","0","0","0","0","0","3","3","3","3","3","0","0","5","0","3","3","0","0","NA","0","3","0","3","NA","0","3","3","12/06/16 15:01:58","The main experiment item","yes","v","W:\Sussex\Consciousness and control\Exp 1 - stroop suggestion and PCE\Methods\Palfi_script","no","mono","no","18","no","black","no","Ok","NA","no","Female","768","legacy","C:/Users/User/Dropbox/Sussex/Consciousness and control/Exp 1 - stroop suggestion and PCE/Methods/Palfi_script/laptop_size/subject-3.csv","legacy","Interactive Ising","3.0.2","0","v","v","space","NA","967","967","3262","NA","2","legacy","1024","2","48000","-16","experiment","3","odd","NA","NA","90019","140983","80201","155909","155336","155874","156879","157867","NA","NA","140983","69482","157115","155372","NA","2370","NA","NA","150393","2371","158317","NA","144246","155334","155909","Stroop CI","5","65602","7","yes","1366","RED"
"35","75","yes","75","26","8337","8337","#ffffff","no","practice","v;b;n;m","legacy","I have read and understood the information shown above","legacy","legacy","#ffef36","0","neutral","uniform","1","1","1","NA","0","0","0","0","0","4","4","4","4","4","0","0","5","0","4","4","0","0","NA","0","4","0","4","NA","0","4","4","12/06/16 15:01:58","The main experiment item","yes","m","W:\Sussex\Consciousness and control\Exp 1 - stroop suggestion and PCE\Methods\Palfi_script","no","mono","no","18","no","black","no","Ok","NA","no","Female","768","legacy","C:/Users/User/Dropbox/Sussex/Consciousness and control/Exp 1 - stroop suggestion and PCE/Methods/Palfi_script/laptop_size/subject-3.csv","legacy","Interactive Ising","3.0.2","0","m","m","space","NA","1099","1099","3262","NA","2","legacy","1024","2","48000","-16","experiment","3","odd","NA","NA","90019","140983","80201","159075","158502","159040","160177","161165","NA","NA","140983","69482","160413","158538","NA","2370","NA","NA","150393","2371","161615","NA","144246","158499","159075","Stroop CI","6","66701","8","yes","1366","SHIP"
"17","77.7777777778","yes","77.7777777778","26","7490","7490","#ffffff","no","practice","v;b;n;m","legacy","I have read and understood the information shown above","legacy","legacy","blue","0","con","uniform","1","1","1","NA","0","0","0","0","0","5","5","5","5","5","0","0","5","0","5","5","0","0","NA","0","5","0","5","NA","0","5","5","12/06/16 15:01:58","The main experiment item","yes","b","W:\Sussex\Consciousness and control\Exp 1 - stroop suggestion and PCE\Methods\Palfi_script","no","mono","no","18","no","black","no","Ok","NA","no","Female","768","legacy","C:/Users/User/Dropbox/Sussex/Consciousness and control/Exp 1 - stroop suggestion and PCE/Methods/Palfi_script/laptop_size/subject-3.csv","legacy","Interactive Ising","3.0.2","0","b","b","space","NA","712","712","3262","NA","2","legacy","1024","2","48000","-16","experiment","3","odd","NA","NA","90019","140983","80201","162313","161741","162278","163030","164018","NA","NA","140983","69482","163266","161776","NA","2370","NA","NA","150393","2371","164468","NA","144246","161739","162313","Stroop CI","7","67413","9","yes","1366","BLUE"
"20","80","yes","80","26","6841","6841","#ffffff","no","practice","v;b;n;m","legacy","I have read and understood the information shown above","legacy","legacy","green","0","con","uniform","1","1","1","NA","0","0","0","0","0","6","6","6","6","6","0","0","5","0","6","6","0","0","NA","0","6","0","6","NA","0","6","6","12/06/16 15:01:58","The main experiment item","yes","n","W:\Sussex\Consciousness and control\Exp 1 - stroop suggestion and PCE\Methods\Palfi_script","no","mono","no","18","no","black","no","Ok","NA","no","Female","768","legacy","C:/Users/User/Dropbox/Sussex/Consciousness and control/Exp 1 - stroop suggestion and PCE/Methods/Palfi_script/laptop_size/subject-3.csv","legacy","Interactive Ising","3.0.2","0","n","n","space","NA","1003","1003","3262","NA","2","legacy","1024","2","48000","-16","experiment","3","odd","NA","NA","90019","140983","80201","165185","164611","165149","166191","167179","NA","NA","140983","69482","166427","164647","NA","2370","NA","NA","150393","2371","167629","NA","144246","164609","165185","Stroop CI","8","68416","10","yes","1366","GREEN"
"36","81.8181818182","yes","81.8181818182","26","6306","6306","#ffffff","no","practice","v;b;n;m","legacy","I have read and understood the information shown above","legacy","legacy","#ffef36","0","neutral","uniform","1","1","1","NA","0","0","0","0","0","7","7","7","7","7","0","0","5","0","7","7","0","0","NA","0","7","0","7","NA","0","7","7","12/06/16 15:01:58","The main experiment item","yes","m","W:\Sussex\Consciousness and control\Exp 1 - stroop suggestion and PCE\Methods\Palfi_script","no","mono","no","18","no","black","no","Ok","NA","no","Female","768","legacy","C:/Users/User/Dropbox/Sussex/Consciousness and control/Exp 1 - stroop suggestion and PCE/Methods/Palfi_script/laptop_size/subject-3.csv","legacy","Interactive Ising","3.0.2","0","m","m","space","NA","953","953","3262","NA","2","legacy","1024","2","48000","-16","experiment","3","odd","NA","NA","90019","140983","80201","168331","167759","168296","169287","170276","NA","NA","140983","69482","169523","167794","NA","2370","NA","NA","150393","2371","170726","NA","144246","167757","168331","Stroop CI","9","69369","11","yes","1366","KNIFE"
"23","83.3333333333","yes","83.3333333333","26","5876","5876","#ffffff","no","practice","v;b;n;m","legacy","I have read and understood the information shown above","legacy","legacy","#ffef36","0","con","uniform","1","1","1","NA","0","0","0","0","0","8","8","8","8","8","0","0","5","0","8","8","0","0","NA","0","8","0","8","NA","0","8","8","12/06/16 15:01:58","The main experiment item","yes","m","W:\Sussex\Consciousness and control\Exp 1 - stroop suggestion and PCE\Methods\Palfi_script","no","mono","no","18","no","black","no","Ok","NA","no","Female","768","legacy","C:/Users/User/Dropbox/Sussex/Consciousness and control/Exp 1 - stroop suggestion and PCE/Methods/Palfi_script/laptop_size/subject-3.csv","legacy","Interactive Ising","3.0.2","0","m","m","space","NA","1144","1144","3262","NA","2","legacy","1024","2","48000","-16","experiment","3","odd","NA","NA","90019","140983","80201","171444","170872","171409","172591","173580","NA","NA","140983","69482","172828","170907","NA","2370","NA","NA","150393","2371","174030","NA","144246","170869","171444","Stroop CI","10","70513","12","yes","1366","YELLOW"
"22","84.6153846154","yes","84.6153846154","26","5466","5466","#ffffff","no","practice","v;b;n;m","legacy","I have read and understood the information shown above","legacy","legacy","#ffef36","0","con","uniform","1","1","1","NA","0","0","0","0","0","9","9","9","9","9","0","0","5","0","9","9","0","0","NA","0","9","0","9","NA","0","9","9","12/06/16 15:01:58","The main experiment item","yes","m","W:\Sussex\Consciousness and control\Exp 1 - stroop suggestion and PCE\Methods\Palfi_script","no","mono","no","18","no","black","no","Ok","NA","no","Female","768","legacy","C:/Users/User/Dropbox/Sussex/Consciousness and control/Exp 1 - stroop suggestion and PCE/Methods/Palfi_script/laptop_size/subject-3.csv","legacy","Interactive Ising","3.0.2","0","m","m","space","NA","550","550","3262","NA","2","legacy","1024","2","48000","-16","experiment","3","odd","NA","NA","90019","140983","80201","174726","174154","174691","175279","176269","NA","NA","140983","69482","175517","174189","NA","2370","NA","NA","150393","2371","176719","NA","144246","174152","174726","Stroop CI","11","71063","13","yes","1366","YELLOW"
"19","85.7142857143","yes","85.7142857143","26","5128","5128","#ffffff","no","practice","v;b;n;m","legacy","I have read and understood the information shown above","legacy","legacy","green","0","con","uniform","1","1","1","NA","0","0","0","0","0","10","10","10","10","10","0","0","5","0","10","10","0","0","NA","0","10","0","10","NA","0","10","10","12/06/16 15:01:58","The main experiment item","yes","n","W:\Sussex\Consciousness and control\Exp 1 - stroop suggestion and PCE\Methods\Palfi_script","no","mono","no","18","no","black","no","Ok","NA","no","Female","768","legacy","C:/Users/User/Dropbox/Sussex/Consciousness and control/Exp 1 - stroop suggestion and PCE/Methods/Palfi_script/laptop_size/subject-3.csv","legacy","Interactive Ising","3.0.2","0","n","n","space","NA","735","735","3262","NA","2","legacy","1024","2","48000","-16","experiment","3","odd","NA","NA","90019","140983","80201","177470","176897","177435","178208","179196","NA","NA","140983","69482","178444","176933","NA","2370","NA","NA","150393","2371","179646","NA","144246","176895","177470","Stroop CI","12","71798","14","yes","1366","GREEN"
"3","80","yes","80","26","4855","4855","#ffffff","no","practice","v;b;n;m","legacy","I have read and understood the information shown above","legacy","legacy","red","0","inc","uniform","0","0","1","NA","0","0","0","0","0","11","11","11","11","11","0","0","5","0","11","11","0","0","NA","0","11","0","11","NA","0","11","11","12/06/16 15:01:58","The main experiment item","yes","v","W:\Sussex\Consciousness and control\Exp 1 - stroop suggestion and PCE\Methods\Palfi_script","no","mono","no","18","no","black","no","Ok","NA","no","Female","768","legacy","C:/Users/User/Dropbox/Sussex/Consciousness and control/Exp 1 - stroop suggestion and PCE/Methods/Palfi_script/laptop_size/subject-3.csv","legacy","Interactive Ising","3.0.2","0","m","m","space","NA","1028","1028","3262","NA","2","legacy","1024","2","48000","-16","experiment","3","odd","NA","NA","90019","140983","80201","180402","179830","180367","181433","182421","NA","NA","140983","69482","178444","179865","NA","2370","NA","NA","181669","2371","182871","NA","144246","179828","180402","Stroop CI","12","72826","15","yes","1366","YELLOW"
"29","81.25","yes","81.25","26","4627","4627","#ffffff","no","practice","v;b;n;m","legacy","I have read and understood the information shown above","legacy","legacy","blue","0","neutral","uniform","1","1","1","NA","0","0","0","0","0","12","12","12","12","12","0","0","5","0","12","12","0","0","NA","0","12","0","12","NA","0","12","12","12/06/16 15:01:58","The main experiment item","yes","b","W:\Sussex\Consciousness and control\Exp 1 - stroop suggestion and PCE\Methods\Palfi_script","no","mono","no","18","no","black","no","Ok","NA","no","Female","768","legacy","C:/Users/User/Dropbox/Sussex/Consciousness and control/Exp 1 - stroop suggestion and PCE/Methods/Palfi_script/laptop_size/subject-3.csv","legacy","Interactive Ising","3.0.2","0","b","b","space","NA","1216","1216","3262","NA","2","legacy","1024","2","48000","-16","experiment","3","odd","NA","NA","90019","140983","80201","183621","183047","183585","184840","185831","NA","NA","140983","69482","185077","183082","NA","2370","NA","NA","181669","2371","186281","NA","144246","183045","183621","Stroop CI","13","74042","16","yes","1366","KNIFE"
"26","82.3529411765","yes","82.3529411765","26","4411","4411","#ffffff","no","practice","v;b;n;m","legacy","I have read and understood the information shown above","legacy","legacy","red","0","neutral","uniform","1","1","1","NA","0","0","0","0","0","13","13","13","13","13","0","0","5","0","13","13","0","0","NA","0","13","0","13","NA","0","13","13","12/06/16 15:01:58","The main experiment item","yes","v","W:\Sussex\Consciousness and control\Exp 1 - stroop suggestion and PCE\Methods\Palfi_script","no","mono","no","18","no","black","no","Ok","NA","no","Female","768","legacy","C:/Users/User/Dropbox/Sussex/Consciousness and control/Exp 1 - stroop suggestion and PCE/Methods/Palfi_script/laptop_size/subject-3.csv","legacy","Interactive Ising","3.0.2","0","v","v","space","NA","958","958","3262","NA","2","legacy","1024","2","48000","-16","experiment","3","odd","NA","NA","90019","140983","80201","187013","186441","186978","187974","188964","NA","NA","140983","69482","188210","186476","NA","2370","NA","NA","181669","2371","189414","NA","144246","186438","187013","Stroop CI","14","75000","17","yes","1366","KNIFE"
"32","83.3333333333","yes","83.3333333333","26","4245","4245","#ffffff","no","practice","v;b;n;m","legacy","I have read and understood the information shown above","legacy","legacy","green","0","neutral","uniform","1","1","1","NA","0","0","0","0","0","14","14","14","14","14","0","0","5","0","14","14","0","0","NA","0","14","0","14","NA","0","14","14","12/06/16 15:01:58","The main experiment item","yes","n","W:\Sussex\Consciousness and control\Exp 1 - stroop suggestion and PCE\Methods\Palfi_script","no","mono","no","18","no","black","no","Ok","NA","no","Female","768","legacy","C:/Users/User/Dropbox/Sussex/Consciousness and control/Exp 1 - stroop suggestion and PCE/Methods/Palfi_script/laptop_size/subject-3.csv","legacy","Interactive Ising","3.0.2","0","n","n","space","NA","1419","1419","3262","NA","2","legacy","1024","2","48000","-16","experiment","3","odd","NA","NA","90019","140983","80201","190142","189568","190107","191564","192555","NA","NA","140983","69482","191802","189603","NA","2370","NA","NA","181669","2371","193005","NA","144246","189566","190142","Stroop CI","15","76419","18","yes","1366","SHIP"
"6","78.9473684211","yes","78.9473684211","26","4127","4127","#ffffff","no","practice","v;b;n;m","legacy","I have read and understood the information shown above","legacy","legacy","blue","0","inc","uniform","0","0","1","NA","0","0","0","0","0","15","15","15","15","15","0","0","5","0","15","15","0","0","NA","0","15","0","15","NA","0","15","15","12/06/16 15:01:58","The main experiment item","yes","b","W:\Sussex\Consciousness and control\Exp 1 - stroop suggestion and PCE\Methods\Palfi_script","no","mono","no","18","no","black","no","Ok","NA","no","Female","768","legacy","C:/Users/User/Dropbox/Sussex/Consciousness and control/Exp 1 - stroop suggestion and PCE/Methods/Palfi_script/laptop_size/subject-3.csv","legacy","Interactive Ising","3.0.2","0","None","None","space","NA","2000","2000","3262","NA","2","legacy","1024","2","48000","-16","experiment","3","odd","NA","NA","90019","140983","80201","193744","193172","193709","195746","196734","NA","NA","140983","69482","191802","193207","NA","2370","NA","NA","195982","2371","197184","NA","144246","193169","193744","Stroop CI","15","78419","19","yes","1366","YELLOW"
"33","75","yes","75","26","4020","4020","#ffffff","no","practice","v;b;n;m","legacy","I have read and understood the information shown above","legacy","legacy","green","0","neutral","uniform","0","0","1","NA","0","0","0","0","0","16","16","16","16","16","0","0","5","0","16","16","0","0","NA","0","16","0","16","NA","0","16","16","12/06/16 15:01:58","The main experiment item","yes","n","W:\Sussex\Consciousness and control\Exp 1 - stroop suggestion and PCE\Methods\Palfi_script","no","mono","no","18","no","black","no","Ok","NA","no","Female","768","legacy","C:/Users/User/Dropbox/Sussex/Consciousness and control/Exp 1 - stroop suggestion and PCE/Methods/Palfi_script/laptop_size/subject-3.csv","legacy","Interactive Ising","3.0.2","0","None","None","space","NA","2000","2000","3262","NA","2","legacy","1024","2","48000","-16","experiment","3","odd","NA","NA","90019","140983","80201","197898","197326","197863","199900","200890","NA","NA","140983","69482","191802","197361","NA","2370","NA","NA","200136","2371","201340","NA","144246","197324","197898","Stroop CI","15","80419","20","yes","1366","FLOWER"
"31","76.1904761905","yes","76.1904761905","26","3867","3867","#ffffff","no","practice","v;b;n;m","legacy","I have read and understood the information shown above","legacy","legacy","green","0","neutral","uniform","1","1","1","NA","0","0","0","0","0","17","17","17","17","17","0","0","5","0","17","17","0","0","NA","0","17","0","17","NA","0","17","17","12/06/16 15:01:58","The main experiment item","yes","n","W:\Sussex\Consciousness and control\Exp 1 - stroop suggestion and PCE\Methods\Palfi_script","no","mono","no","18","no","black","no","Ok","NA","no","Female","768","legacy","C:/Users/User/Dropbox/Sussex/Consciousness and control/Exp 1 - stroop suggestion and PCE/Methods/Palfi_script/laptop_size/subject-3.csv","legacy","Interactive Ising","3.0.2","0","n","n","space","NA","791","791","3262","NA","2","legacy","1024","2","48000","-16","experiment","3","odd","NA","NA","90019","140983","80201","202100","201528","202065","202894","203884","NA","NA","140983","69482","203132","201563","NA","2370","NA","NA","200136","2371","204334","NA","144246","201526","202100","Stroop CI","16","81210","21","yes","1366","LOT"
"14","77.2727272727","yes","77.2727272727","26","3734","3734","#ffffff","no","practice","v;b;n;m","legacy","I have read and understood the information shown above","legacy","legacy","red","0","con","uniform","1","1","1","NA","0","0","0","0","0","18","18","18","18","18","0","0","5","0","18","18","0","0","NA","0","18","0","18","NA","0","18","18","12/06/16 15:01:58","The main experiment item","yes","v","W:\Sussex\Consciousness and control\Exp 1 - stroop suggestion and PCE\Methods\Palfi_script","no","mono","no","18","no","black","no","Ok","NA","no","Female","768","legacy","C:/Users/User/Dropbox/Sussex/Consciousness and control/Exp 1 - stroop suggestion and PCE/Methods/Palfi_script/laptop_size/subject-3.csv","legacy","Interactive Ising","3.0.2","0","v","v","space","NA","950","950","3262","NA","2","legacy","1024","2","48000","-16","experiment","3","odd","NA","NA","90019","140983","80201","205088","204516","205053","206041","207029","NA","NA","140983","69482","206277","204551","NA","2370","NA","NA","200136","2371","207479","NA","144246","204514","205088","Stroop CI","17","82160","22","yes","1366","RED"
"30","78.2608695652","yes","78.2608695652","26","3632","3632","#ffffff","no","practice","v;b;n;m","legacy","I have read and understood the information shown above","legacy","legacy","blue","0","neutral","uniform","1","1","1","NA","0","0","0","0","0","19","19","19","19","19","0","0","5","0","19","19","0","0","NA","0","19","0","19","NA","0","19","19","12/06/16 15:01:58","The main experiment item","yes","b","W:\Sussex\Consciousness and control\Exp 1 - stroop suggestion and PCE\Methods\Palfi_script","no","mono","no","18","no","black","no","Ok","NA","no","Female","768","legacy","C:/Users/User/Dropbox/Sussex/Consciousness and control/Exp 1 - stroop suggestion and PCE/Methods/Palfi_script/laptop_size/subject-3.csv","legacy","Interactive Ising","3.0.2","0","b","b","space","NA","1389","1389","3262","NA","2","legacy","1024","2","48000","-16","experiment","3","odd","NA","NA","90019","140983","80201","208237","207665","208202","209630","210624","NA","NA","140983","69482","209868","207700","NA","2370","NA","NA","200136","2371","211074","NA","144246","207662","208237","Stroop CI","18","83549","23","yes","1366","FLOWER"
"25","79.1666666667","yes","79.1666666667","26","3512","3512","#ffffff","no","practice","v;b;n;m","legacy","I have read and understood the information shown above","legacy","legacy","red","0","neutral","uniform","1","1","1","NA","0","0","0","0","0","20","20","20","20","20","0","0","5","0","20","20","0","0","NA","0","20","0","20","NA","0","20","20","12/06/16 15:01:58","The main experiment item","yes","v","W:\Sussex\Consciousness and control\Exp 1 - stroop suggestion and PCE\Methods\Palfi_script","no","mono","no","18","no","black","no","Ok","NA","no","Female","768","legacy","C:/Users/User/Dropbox/Sussex/Consciousness and control/Exp 1 - stroop suggestion and PCE/Methods/Palfi_script/laptop_size/subject-3.csv","legacy","Interactive Ising","3.0.2","0","v","v","space","NA","746","746","3262","NA","2","legacy","1024","2","48000","-16","experiment","3","odd","NA","NA","90019","140983","80201","211857","211285","211822","212606","213594","NA","NA","140983","69482","212842","211320","NA","2370","NA","NA","200136","2371","214044","NA","144246","211282","211857","Stroop CI","19","84295","24","yes","1366","SHIP"
"9","80","yes","80","26","3415","3415","#ffffff","no","practice","v;b;n;m","legacy","I have read and understood the information shown above","legacy","legacy","green","0","inc","uniform","1","1","1","NA","0","0","0","0","0","21","21","21","21","21","0","0","5","0","21","21","0","0","NA","0","21","0","21","NA","0","21","21","12/06/16 15:01:58","The main experiment item","yes","n","W:\Sussex\Consciousness and control\Exp 1 - stroop suggestion and PCE\Methods\Palfi_script","no","mono","no","18","no","black","no","Ok","NA","no","Female","768","legacy","C:/Users/User/Dropbox/Sussex/Consciousness and control/Exp 1 - stroop suggestion and PCE/Methods/Palfi_script/laptop_size/subject-3.csv","legacy","Interactive Ising","3.0.2","0","n","n","space","NA","1094","1094","3262","NA","2","legacy","1024","2","48000","-16","experiment","3","odd","NA","NA","90019","140983","80201","214833","214261","214798","215930","216922","NA","NA","140983","69482","216167","214296","NA","2370","NA","NA","200136","2371","217372","NA","144246","214259","214833","Stroop CI","20","85389","25","yes","1366","YELLOW"
"13","80.7692307692","yes","80.7692307692","26","3318","3318","#ffffff","no","practice","v;b;n;m","legacy","I have read and understood the information shown above","legacy","legacy","red","0","con","uniform","1","1","1","NA","0","0","0","0","0","22","22","22","22","22","0","0","5","0","22","22","0","0","NA","0","22","0","22","NA","0","22","22","12/06/16 15:01:58","The main experiment item","yes","v","W:\Sussex\Consciousness and control\Exp 1 - stroop suggestion and PCE\Methods\Palfi_script","no","mono","no","18","no","black","no","Ok","NA","no","Female","768","legacy","C:/Users/User/Dropbox/Sussex/Consciousness and control/Exp 1 - stroop suggestion and PCE/Methods/Palfi_script/laptop_size/subject-3.csv","legacy","Interactive Ising","3.0.2","0","v","v","space","NA","900","900","3262","NA","2","legacy","1024","2","48000","-16","experiment","3","odd","NA","NA","90019","140983","80201","218148","217576","218113","219051","220040","NA","NA","140983","69482","219288","217611","NA","2370","NA","NA","200136","2371","220490","NA","144246","217574","218148","Stroop CI","21","86289","26","yes","1366","RED"
"11","77.7777777778","yes","77.7777777778","26","3232","3232","#ffffff","no","practice","v;b;n;m","legacy","I have read and understood the information shown above","legacy","legacy","#ffef36","0","inc","uniform","0","0","1","NA","0","0","0","0","0","23","23","23","23","23","0","0","5","0","23","23","0","0","NA","0","23","0","23","NA","0","23","23","12/06/16 15:01:58","The main experiment item","yes","m","W:\Sussex\Consciousness and control\Exp 1 - stroop suggestion and PCE\Methods\Palfi_script","no","mono","no","18","no","black","no","Ok","NA","no","Female","768","legacy","C:/Users/User/Dropbox/Sussex/Consciousness and control/Exp 1 - stroop suggestion and PCE/Methods/Palfi_script/laptop_size/subject-3.csv","legacy","Interactive Ising","3.0.2","0","b","b","space","NA","983","983","3262","NA","2","legacy","1024","2","48000","-16","experiment","3","odd","NA","NA","90019","140983","80201","221215","220643","221180","222201","223189","NA","NA","140983","69482","219288","220678","NA","2370","NA","NA","222437","2371","223639","NA","144246","220641","221215","Stroop CI","21","87272","27","yes","1366","BLUE"
"18","78.5714285714","yes","78.5714285714","26","3152","3152","#ffffff","no","practice","v;b;n;m","legacy","I have read and understood the information shown above","legacy","legacy","blue","0","con","uniform","1","1","1","NA","0","0","0","0","0","24","24","24","24","24","0","0","5","0","24","24","0","0","NA","0","24","0","24","NA","0","24","24","12/06/16 15:01:58","The main experiment item","yes","b","W:\Sussex\Consciousness and control\Exp 1 - stroop suggestion and PCE\Methods\Palfi_script","no","mono","no","18","no","black","no","Ok","NA","no","Female","768","legacy","C:/Users/User/Dropbox/Sussex/Consciousness and control/Exp 1 - stroop suggestion and PCE/Methods/Palfi_script/laptop_size/subject-3.csv","legacy","Interactive Ising","3.0.2","0","b","b","space","NA","995","995","3262","NA","2","legacy","1024","2","48000","-16","experiment","3","odd","NA","NA","90019","140983","80201","224342","223770","224307","225339","226328","NA","NA","140983","69482","225576","223805","NA","2370","NA","NA","222437","2371","226778","NA","144246","223768","224342","Stroop CI","22","88267","28","yes","1366","BLUE"
"7","75.8620689655","yes","75.8620689655","26","3090","3090","#ffffff","no","practice","v;b;n;m","legacy","I have read and understood the information shown above","legacy","legacy","green","0","inc","uniform","0","0","1","NA","0","0","0","0","0","25","25","25","25","25","0","0","5","0","25","25","0","0","NA","0","25","0","25","NA","0","25","25","12/06/16 15:01:58","The main experiment item","yes","n","W:\Sussex\Consciousness and control\Exp 1 - stroop suggestion and PCE\Methods\Palfi_script","no","mono","no","18","no","black","no","Ok","NA","no","Female","768","legacy","C:/Users/User/Dropbox/Sussex/Consciousness and control/Exp 1 - stroop suggestion and PCE/Methods/Palfi_script/laptop_size/subject-3.csv","legacy","Interactive Ising","3.0.2","0","v","v","space","NA","1368","1368","3262","NA","2","legacy","1024","2","48000","-16","experiment","3","odd","NA","NA","90019","140983","80201","227497","226925","227462","228868","229857","NA","NA","140983","69482","225576","226960","NA","2370","NA","NA","229104","2371","230307","NA","144246","226923","227497","Stroop CI","22","89635","29","yes","1366","RED"
"8","76.6666666667","yes","76.6666666667","26","3047","3047","#ffffff","no","practice","v;b;n;m","legacy","I have read and understood the information shown above","legacy","legacy","green","0","inc","uniform","1","1","1","NA","0","0","0","0","0","26","26","26","26","26","0","0","5","0","26","26","0","0","NA","0","26","0","26","NA","0","26","26","12/06/16 15:01:58","The main experiment item","yes","n","W:\Sussex\Consciousness and control\Exp 1 - stroop suggestion and PCE\Methods\Palfi_script","no","mono","no","18","no","black","no","Ok","NA","no","Female","768","legacy","C:/Users/User/Dropbox/Sussex/Consciousness and control/Exp 1 - stroop suggestion and PCE/Methods/Palfi_script/laptop_size/subject-3.csv","legacy","Interactive Ising","3.0.2","0","n","n","space","NA","1775","1775","3262","NA","2","legacy","1024","2","48000","-16","experiment","3","odd","NA","NA","90019","140983","80201","231007","230434","230972","232785","233775","NA","NA","140983","69482","233021","230470","NA","2370","NA","NA","229104","2371","234225","NA","144246","230432","231007","Stroop CI","23","91410","30","yes","1366","BLUE"
"16","77.4193548387","yes","77.4193548387","26","2988","2988","#ffffff","no","practice","v;b;n;m","legacy","I have read and understood the information shown above","legacy","legacy","blue","0","con","uniform","1","1","1","NA","0","0","0","0","0","27","27","27","27","27","0","0","5","0","27","27","0","0","NA","0","27","0","27","NA","0","27","27","12/06/16 15:01:58","The main experiment item","yes","b","W:\Sussex\Consciousness and control\Exp 1 - stroop suggestion and PCE\Methods\Palfi_script","no","mono","no","18","no","black","no","Ok","NA","no","Female","768","legacy","C:/Users/User/Dropbox/Sussex/Consciousness and control/Exp 1 - stroop suggestion and PCE/Methods/Palfi_script/laptop_size/subject-3.csv","legacy","Interactive Ising","3.0.2","0","b","b","space","NA","1229","1229","3262","NA","2","legacy","1024","2","48000","-16","experiment","3","odd","NA","NA","90019","140983","80201","234930","234358","234895","236161","237150","NA","NA","140983","69482","236398","234393","NA","2370","NA","NA","229104","2371","237600","NA","144246","234355","234930","Stroop CI","24","92639","31","yes","1366","BLUE"
"21","78.125","yes","78.125","26","2933","2933","#ffffff","no","practice","v;b;n;m","legacy","I have read and understood the information shown above","legacy","legacy","green","0","con","uniform","1","1","1","NA","0","0","0","0","0","28","28","28","28","28","0","0","5","0","28","28","0","0","NA","0","28","0","28","NA","0","28","28","12/06/16 15:01:58","The main experiment item","yes","n","W:\Sussex\Consciousness and control\Exp 1 - stroop suggestion and PCE\Methods\Palfi_script","no","mono","no","18","no","black","no","Ok","NA","no","Female","768","legacy","C:/Users/User/Dropbox/Sussex/Consciousness and control/Exp 1 - stroop suggestion and PCE/Methods/Palfi_script/laptop_size/subject-3.csv","legacy","Interactive Ising","3.0.2","0","n","n","space","NA","1237","1237","3262","NA","2","legacy","1024","2","48000","-16","experiment","3","odd","NA","NA","90019","140983","80201","238308","237736","238273","239548","240536","NA","NA","140983","69482","239784","237771","NA","2370","NA","NA","229104","2371","240986","NA","144246","237734","238308","Stroop CI","25","93876","32","yes","1366","GREEN"
"28","78.7878787879","yes","78.7878787879","26","2885","2885","#ffffff","no","practice","v;b;n;m","legacy","I have read and understood the information shown above","legacy","legacy","blue","0","neutral","uniform","1","1","1","NA","0","0","0","0","0","29","29","29","29","29","0","0","5","0","29","29","0","0","NA","0","29","0","29","NA","0","29","29","12/06/16 15:01:58","The main experiment item","yes","b","W:\Sussex\Consciousness and control\Exp 1 - stroop suggestion and PCE\Methods\Palfi_script","no","mono","no","18","no","black","no","Ok","NA","no","Female","768","legacy","C:/Users/User/Dropbox/Sussex/Consciousness and control/Exp 1 - stroop suggestion and PCE/Methods/Palfi_script/laptop_size/subject-3.csv","legacy","Interactive Ising","3.0.2","0","b","b","space","NA","1361","1361","3262","NA","2","legacy","1024","2","48000","-16","experiment","3","odd","NA","NA","90019","140983","80201","241706","241134","241671","243070","244058","NA","NA","140983","69482","243306","241169","NA","2370","NA","NA","229104","2371","244508","NA","144246","241132","241706","Stroop CI","26","95237","33","yes","1366","LOT"
"34","79.4117647059","yes","79.4117647059","26","2834","2834","#ffffff","no","practice","v;b;n;m","legacy","I have read and understood the information shown above","legacy","legacy","#ffef36","0","neutral","uniform","1","1","1","NA","0","0","0","0","0","30","30","30","30","30","0","0","5","0","30","30","0","0","NA","0","30","0","30","NA","0","30","30","12/06/16 15:01:58","The main experiment item","yes","m","W:\Sussex\Consciousness and control\Exp 1 - stroop suggestion and PCE\Methods\Palfi_script","no","mono","no","18","no","black","no","Ok","NA","no","Female","768","legacy","C:/Users/User/Dropbox/Sussex/Consciousness and control/Exp 1 - stroop suggestion and PCE/Methods/Palfi_script/laptop_size/subject-3.csv","legacy","Interactive Ising","3.0.2","0","m","m","space","NA","1129","1129","3262","NA","2","legacy","1024","2","48000","-16","experiment","3","odd","NA","NA","90019","140983","80201","245211","244639","245176","246344","247334","NA","NA","140983","69482","246580","244674","NA","2370","NA","NA","229104","2371","247784","NA","144246","244637","245211","Stroop CI","27","96366","34","yes","1366","LOT"
"27","80","yes","80","26","2782","2782","#ffffff","no","practice","v;b;n;m","legacy","I have read and understood the information shown above","legacy","legacy","red","0","neutral","uniform","1","1","1","NA","0","0","0","0","0","31","31","31","31","31","0","0","5","0","31","31","0","0","NA","0","31","0","31","NA","0","31","31","12/06/16 15:01:58","The main experiment item","yes","v","W:\Sussex\Consciousness and control\Exp 1 - stroop suggestion and PCE\Methods\Palfi_script","no","mono","no","18","no","black","no","Ok","NA","no","Female","768","legacy","C:/Users/User/Dropbox/Sussex/Consciousness and control/Exp 1 - stroop suggestion and PCE/Methods/Palfi_script/laptop_size/subject-3.csv","legacy","Interactive Ising","3.0.2","0","v","v","space","NA","1034","1034","3262","NA","2","legacy","1024","2","48000","-16","experiment","3","odd","NA","NA","90019","140983","80201","248533","247961","248498","249571","250561","NA","NA","140983","69482","249809","247996","NA","2370","NA","NA","229104","2371","251011","NA","144246","247959","248533","Stroop CI","28","97400","35","yes","1366","FLOWER"
"10","80.5555555556","yes","80.5555555556","26","2759","2759","#ffffff","no","practice","v;b;n;m","legacy","I have read and understood the information shown above","legacy","legacy","#ffef36","0","inc","uniform","1","1","1","NA","0","0","0","0","0","32","32","32","32","32","0","0","5","0","32","32","0","0","NA","0","32","0","32","NA","0","32","32","12/06/16 15:01:58","The main experiment item","yes","m","W:\Sussex\Consciousness and control\Exp 1 - stroop suggestion and PCE\Methods\Palfi_script","no","mono","no","18","no","black","no","Ok","NA","no","Female","768","legacy","C:/Users/User/Dropbox/Sussex/Consciousness and control/Exp 1 - stroop suggestion and PCE/Methods/Palfi_script/laptop_size/subject-3.csv","legacy","Interactive Ising","3.0.2","0","m","m","space","NA","1947","1947","3262","NA","2","legacy","1024","2","48000","-16","experiment","3","odd","NA","NA","90019","140983","80201","251717","251145","251682","253667","254657","NA","NA","140983","69482","253904","251180","NA","2370","NA","NA","229104","2371","255107","NA","144246","251142","251717","Stroop CI","29","99347","36","yes","1366","RED"
"24","81.0810810811","yes","81.0810810811","26","2709","2709","#ffffff","no","practice","v;b;n;m","legacy","I have read and understood the information shown above","legacy","legacy","#ffef36","0","con","uniform","1","1","1","NA","0","0","0","0","0","33","33","33","33","33","0","0","5","0","33","33","0","0","NA","0","33","0","33","NA","0","33","33","12/06/16 15:01:58","The main experiment item","yes","m","W:\Sussex\Consciousness and control\Exp 1 - stroop suggestion and PCE\Methods\Palfi_script","no","mono","no","18","no","black","no","Ok","NA","no","Female","768","legacy","C:/Users/User/Dropbox/Sussex/Consciousness and control/Exp 1 - stroop suggestion and PCE/Methods/Palfi_script/laptop_size/subject-3.csv","legacy","Interactive Ising","3.0.2","0","m","m","space","NA","918","918","3262","NA","2","legacy","1024","2","48000","-16","experiment","3","odd","NA","NA","90019","140983","80201","255805","255232","255769","256726","257714","NA","NA","140983","69482","256962","255267","NA","2370","NA","NA","229104","2371","258164","NA","144246","255230","255804","Stroop CI","30","100265","37","yes","1366","YELLOW"
"2","78.9473684211","yes","78.9473684211","26","2691","2691","#ffffff","no","practice","v;b;n;m","legacy","I have read and understood the information shown above","legacy","legacy","red","0","inc","uniform","0","0","1","NA","0","0","0","0","0","34","34","34","34","34","0","0","5","0","34","34","0","0","NA","0","34","0","34","NA","0","34","34","12/06/16 15:01:58","The main experiment item","yes","v","W:\Sussex\Consciousness and control\Exp 1 - stroop suggestion and PCE\Methods\Palfi_script","no","mono","no","18","no","black","no","Ok","NA","no","Female","768","legacy","C:/Users/User/Dropbox/Sussex/Consciousness and control/Exp 1 - stroop suggestion and PCE/Methods/Palfi_script/laptop_size/subject-3.csv","legacy","Interactive Ising","3.0.2","0","None","None","space","NA","2000","2000","3262","NA","2","legacy","1024","2","48000","-16","experiment","3","odd","NA","NA","90019","140983","80201","258867","258294","258832","260869","261858","NA","NA","140983","69482","256962","258330","NA","2370","NA","NA","261105","2371","262308","NA","144246","258292","258867","Stroop CI","30","102265","38","yes","1366","GREEN"
"4","79.4871794872","yes","79.4871794872","26","2669","2669","#ffffff","no","practice","v;b;n;m","legacy","I have read and understood the information shown above","legacy","legacy","blue","0","inc","uniform","1","1","1","NA","0","0","0","0","0","35","35","35","35","35","0","0","5","0","35","35","0","0","NA","0","35","0","35","NA","0","35","35","12/06/16 15:01:58","The main experiment item","yes","b","W:\Sussex\Consciousness and control\Exp 1 - stroop suggestion and PCE\Methods\Palfi_script","no","mono","no","18","no","black","no","Ok","NA","no","Female","768","legacy","C:/Users/User/Dropbox/Sussex/Consciousness and control/Exp 1 - stroop suggestion and PCE/Methods/Palfi_script/laptop_size/subject-3.csv","legacy","Interactive Ising","3.0.2","0","b","b","space","NA","1863","1863","3262","NA","2","legacy","1024","2","48000","-16","experiment","3","odd","NA","NA","90019","140983","80201","263061","262489","263026","264928","265920","NA","NA","140983","69482","265165","262524","NA","2370","NA","NA","261105","2371","266370","NA","144246","262487","263061","Stroop CI","31","104128","39","yes","1366","RED"
"15","80.487804878","yes","80.487804878","26","2805","2805","#ffffff","no","C","v;b;n;m","legacy","I have read and understood the information shown above","legacy","legacy","red","0","neutral","uniform","1","1","1","NA","0","0","0","0","0","36","36","36","36","36","0","0","5","0","36","36","0","0","NA","0","36","0","36","NA","0","36","36","12/06/16 15:01:58","The main experiment item","yes","v","W:\Sussex\Consciousness and control\Exp 1 - stroop suggestion and PCE\Methods\Palfi_script","no","mono","no","18","no","black","no","Ok","NA","no","Female","768","legacy","C:/Users/User/Dropbox/Sussex/Consciousness and control/Exp 1 - stroop suggestion and PCE/Methods/Palfi_script/laptop_size/subject-3.csv","legacy","Interactive Ising","3.0.2","0","v","v","space","NA","1274","1274","9618","NA","2","legacy","1024","2","48000","-16","experiment","3","odd","276026","NA","90019","140983","80201","276698","276126","276663","277976","278966","266407","NA","266407","69482","278212","276161","NA","2370","NA","NA","261105","2371","279416","NA","144246","276124","276698","Stroop CI","33","115020","41","yes","1366","FLOWER"
"99","80.9523809524","yes","80.9523809524","26","2759","2759","#ffffff","no","C","v;b;n;m","legacy","I have read and understood the information shown above","legacy","legacy","#ffef36","0","con","uniform","1","1","1","NA","0","0","0","0","0","37","37","37","37","37","0","0","5","0","37","37","0","0","NA","0","37","0","37","NA","0","37","37","12/06/16 15:01:58","The main experiment item","yes","m","W:\Sussex\Consciousness and control\Exp 1 - stroop suggestion and PCE\Methods\Palfi_script","no","mono","no","18","no","black","no","Ok","NA","no","Female","768","legacy","C:/Users/User/Dropbox/Sussex/Consciousness and control/Exp 1 - stroop suggestion and PCE/Methods/Palfi_script/laptop_size/subject-3.csv","legacy","Interactive Ising","3.0.2","0","m","m","space","NA","872","872","9618","NA","2","legacy","1024","2","48000","-16","experiment","3","odd","276026","NA","90019","140983","80201","280166","279594","280131","281042","282030","266407","NA","266407","69482","281278","279629","NA","2370","NA","NA","261105","2371","282480","NA","144246","279592","280166","Stroop CI","34","115892","42","yes","1366","YELLOW"
"34","81.3953488372","yes","81.3953488372","26","2721","2721","#ffffff","no","C","v;b;n;m","legacy","I have read and understood the information shown above","legacy","legacy","red","0","con","uniform","1","1","1","NA","0","0","0","0","0","38","38","38","38","38","0","0","5","0","38","38","0","0","NA","0","38","0","38","NA","0","38","38","12/06/16 15:01:58","The main experiment item","yes","v","W:\Sussex\Consciousness and control\Exp 1 - stroop suggestion and PCE\Methods\Palfi_script","no","mono","no","18","no","black","no","Ok","NA","no","Female","768","legacy","C:/Users/User/Dropbox/Sussex/Consciousness and control/Exp 1 - stroop suggestion and PCE/Methods/Palfi_script/laptop_size/subject-3.csv","legacy","Interactive Ising","3.0.2","0","v","v","space","NA","1113","1113","9618","NA","2","legacy","1024","2","48000","-16","experiment","3","odd","276026","NA","90019","140983","80201","283235","282663","283200","284351","285339","266407","NA","266407","69482","284587","282698","NA","2370","NA","NA","261105","2371","285789","NA","144246","282661","283235","Stroop CI","35","117005","43","yes","1366","RED"
"118","81.8181818182","yes","81.8181818182","26","2680","2680","#ffffff","no","C","v;b;n;m","legacy","I have read and understood the information shown above","legacy","legacy","#ffef36","0","con","uniform","1","1","1","NA","0","0","0","0","0","39","39","39","39","39","0","0","5","0","39","39","0","0","NA","0","39","0","39","NA","0","39","39","12/06/16 15:01:58","The main experiment item","yes","m","W:\Sussex\Consciousness and control\Exp 1 - stroop suggestion and PCE\Methods\Palfi_script","no","mono","no","18","no","black","no","Ok","NA","no","Female","768","legacy","C:/Users/User/Dropbox/Sussex/Consciousness and control/Exp 1 - stroop suggestion and PCE/Methods/Palfi_script/laptop_size/subject-3.csv","legacy","Interactive Ising","3.0.2","0","m","m","space","NA","936","936","9618","NA","2","legacy","1024","2","48000","-16","experiment","3","odd","276026","NA","90019","140983","80201","286524","285952","286489","287463","288452","266407","NA","266407","69482","287699","285987","NA","2370","NA","NA","261105","2371","288902","NA","144246","285950","286524","Stroop CI","36","117941","44","yes","1366","YELLOW"
"22","82.2222222222","yes","82.2222222222","26","2636","2636","#ffffff","no","C","v;b;n;m","legacy","I have read and understood the information shown above","legacy","legacy","#ffef36","0","neutral","uniform","1","1","1","NA","0","0","0","0","0","40","40","40","40","40","0","0","5","0","40","40","0","0","NA","0","40","0","40","NA","0","40","40","12/06/16 15:01:58","The main experiment item","yes","m","W:\Sussex\Consciousness and control\Exp 1 - stroop suggestion and PCE\Methods\Palfi_script","no","mono","no","18","no","black","no","Ok","NA","no","Female","768","legacy","C:/Users/User/Dropbox/Sussex/Consciousness and control/Exp 1 - stroop suggestion and PCE/Methods/Palfi_script/laptop_size/subject-3.csv","legacy","Interactive Ising","3.0.2","0","m","m","space","NA","717","717","9618","NA","2","legacy","1024","2","48000","-16","experiment","3","odd","276026","NA","90019","140983","80201","289609","289036","289574","290329","291317","266407","NA","266407","69482","290565","289072","NA","2370","NA","NA","261105","2371","291768","NA","144246","289034","289609","Stroop CI","37","118658","45","yes","1366","LOT"
"68","82.6086956522","yes","82.6086956522","26","2594","2594","#ffffff","no","C","v;b;n;m","legacy","I have read and understood the information shown above","legacy","legacy","blue","0","con","uniform","1","1","1","NA","0","0","0","0","0","41","41","41","41","41","0","0","5","0","41","41","0","0","NA","0","41","0","41","NA","0","41","41","12/06/16 15:01:58","The main experiment item","yes","b","W:\Sussex\Consciousness and control\Exp 1 - stroop suggestion and PCE\Methods\Palfi_script","no","mono","no","18","no","black","no","Ok","NA","no","Female","768","legacy","C:/Users/User/Dropbox/Sussex/Consciousness and control/Exp 1 - stroop suggestion and PCE/Methods/Palfi_script/laptop_size/subject-3.csv","legacy","Interactive Ising","3.0.2","0","b","b","space","NA","699","699","9618","NA","2","legacy","1024","2","48000","-16","experiment","3","odd","276026","NA","90019","140983","80201","292477","291905","292442","293178","294167","266407","NA","266407","69482","293415","291940","NA","2370","NA","NA","261105","2371","294617","NA","144246","291903","292477","Stroop CI","38","119357","46","yes","1366","BLUE"
"32","82.9787234043","yes","82.9787234043","26","2555","2555","#ffffff","no","C","v;b;n;m","legacy","I have read and understood the information shown above","legacy","legacy","red","0","con","uniform","1","1","1","NA","0","0","0","0","0","42","42","42","42","42","0","0","5","0","42","42","0","0","NA","0","42","0","42","NA","0","42","42","12/06/16 15:01:58","The main experiment item","yes","v","W:\Sussex\Consciousness and control\Exp 1 - stroop suggestion and PCE\Methods\Palfi_script","no","mono","no","18","no","black","no","Ok","NA","no","Female","768","legacy","C:/Users/User/Dropbox/Sussex/Consciousness and control/Exp 1 - stroop suggestion and PCE/Methods/Palfi_script/laptop_size/subject-3.csv","legacy","Interactive Ising","3.0.2","0","v","v","space","NA","763","763","9618","NA","2","legacy","1024","2","48000","-16","experiment","3","odd","276026","NA","90019","140983","80201","295382","294810","295347","296148","297137","266407","NA","266407","69482","296384","294845","NA","2370","NA","NA","261105","2371","297588","NA","144246","294808","295382","Stroop CI","39","120120","47","yes","1366","RED"
"47","83.3333333333","yes","83.3333333333","26","2514","2514","#ffffff","no","C","v;b;n;m","legacy","I have read and understood the information shown above","legacy","legacy","red","0","con","uniform","1","1","1","NA","0","0","0","0","0","43","43","43","43","43","0","0","5","0","43","43","0","0","NA","0","43","0","43","NA","0","43","43","12/06/16 15:01:58","The main experiment item","yes","v","W:\Sussex\Consciousness and control\Exp 1 - stroop suggestion and PCE\Methods\Palfi_script","no","mono","no","18","no","black","no","Ok","NA","no","Female","768","legacy","C:/Users/User/Dropbox/Sussex/Consciousness and control/Exp 1 - stroop suggestion and PCE/Methods/Palfi_script/laptop_size/subject-3.csv","legacy","Interactive Ising","3.0.2","0","v","v","space","NA","590","590","9618","NA","2","legacy","1024","2","48000","-16","experiment","3","odd","276026","NA","90019","140983","80201","298351","297778","298315","298944","299932","266407","NA","266407","69482","299180","297813","NA","2370","NA","NA","261105","2371","300382","NA","144246","297776","298351","Stroop CI","40","120710","48","yes","1366","RED"
"33","83.6734693878","yes","83.6734693878","26","2476","2476","#ffffff","no","C","v;b;n;m","legacy","I have read and understood the information shown above","legacy","legacy","red","0","con","uniform","1","1","1","NA","0","0","0","0","0","44","44","44","44","44","0","0","5","0","44","44","0","0","NA","0","44","0","44","NA","0","44","44","12/06/16 15:01:58","The main experiment item","yes","v","W:\Sussex\Consciousness and control\Exp 1 - stroop suggestion and PCE\Methods\Palfi_script","no","mono","no","18","no","black","no","Ok","NA","no","Female","768","legacy","C:/Users/User/Dropbox/Sussex/Consciousness and control/Exp 1 - stroop suggestion and PCE/Methods/Palfi_script/laptop_size/subject-3.csv","legacy","Interactive Ising","3.0.2","0","v","v","space","NA","636","636","9618","NA","2","legacy","1024","2","48000","-16","experiment","3","odd","276026","NA","90019","140983","80201","301091","300519","301056","301731","302719","266407","NA","266407","69482","301967","300554","NA","2370","NA","NA","261105","2371","303169","NA","144246","300516","301091","Stroop CI","41","121346","49","yes","1366","RED"
"93","84","yes","84","26","2453","2453","#ffffff","no","C","v;b;n;m","legacy","I have read and understood the information shown above","legacy","legacy","green","0","con","uniform","1","1","1","NA","0","0","0","0","0","45","45","45","45","45","0","0","5","0","45","45","0","0","NA","0","45","0","45","NA","0","45","45","12/06/16 15:01:58","The main experiment item","yes","n","W:\Sussex\Consciousness and control\Exp 1 - stroop suggestion and PCE\Methods\Palfi_script","no","mono","no","18","no","black","no","Ok","NA","no","Female","768","legacy","C:/Users/User/Dropbox/Sussex/Consciousness and control/Exp 1 - stroop suggestion and PCE/Methods/Palfi_script/laptop_size/subject-3.csv","legacy","Interactive Ising","3.0.2","0","n","n","space","NA","1314","1314","9618","NA","2","legacy","1024","2","48000","-16","experiment","3","odd","276026","NA","90019","140983","80201","303878","303306","303843","305195","306184","266407","NA","266407","69482","305432","303341","NA","2370","NA","NA","261105","2371","306634","NA","144246","303304","303878","Stroop CI","42","122660","50","yes","1366","GREEN"
"60","84.3137254902","yes","84.3137254902","26","2415","2415","#ffffff","no","C","v;b;n;m","legacy","I have read and understood the information shown above","legacy","legacy","blue","0","con","uniform","1","1","1","NA","0","0","0","0","0","46","46","46","46","46","0","0","5","0","46","46","0","0","NA","0","46","0","46","NA","0","46","46","12/06/16 15:01:58","The main experiment item","yes","b","W:\Sussex\Consciousness and control\Exp 1 - stroop suggestion and PCE\Methods\Palfi_script","no","mono","no","18","no","black","no","Ok","NA","no","Female","768","legacy","C:/Users/User/Dropbox/Sussex/Consciousness and control/Exp 1 - stroop suggestion and PCE/Methods/Palfi_script/laptop_size/subject-3.csv","legacy","Interactive Ising","3.0.2","0","b","b","space","NA","536","536","9618","NA","2","legacy","1024","2","48000","-16","experiment","3","odd","276026","NA","90019","140983","80201","307358","306786","307323","307897","308886","266407","NA","266407","69482","308133","306821","NA","2370","NA","NA","261105","2371","309336","NA","144246","306784","307358","Stroop CI","43","123196","51","yes","1366","BLUE"
"37","84.6153846154","yes","84.6153846154","26","2382","2382","#ffffff","no","C","v;b;n;m","legacy","I have read and understood the information shown above","legacy","legacy","red","0","con","uniform","1","1","1","NA","0","0","0","0","0","47","47","47","47","47","0","0","5","0","47","47","0","0","NA","0","47","0","47","NA","0","47","47","12/06/16 15:01:58","The main experiment item","yes","v","W:\Sussex\Consciousness and control\Exp 1 - stroop suggestion and PCE\Methods\Palfi_script","no","mono","no","18","no","black","no","Ok","NA","no","Female","768","legacy","C:/Users/User/Dropbox/Sussex/Consciousness and control/Exp 1 - stroop suggestion and PCE/Methods/Palfi_script/laptop_size/subject-3.csv","legacy","Interactive Ising","3.0.2","0","v","v","space","NA","671","671","9618","NA","2","legacy","1024","2","48000","-16","experiment","3","odd","276026","NA","90019","140983","80201","310089","309517","310054","310763","311751","266407","NA","266407","69482","310999","309552","NA","2370","NA","NA","261105","2371","312201","NA","144246","309515","310089","Stroop CI","44","123867","52","yes","1366","RED"
"52","84.9056603774","yes","84.9056603774","26","2352","2352","#ffffff","no","C","v;b;n;m","legacy","I have read and understood the information shown above","legacy","legacy","blue","0","con","uniform","1","1","1","NA","0","0","0","0","0","48","48","48","48","48","0","0","5","0","48","48","0","0","NA","0","48","0","48","NA","0","48","48","12/06/16 15:01:58","The main experiment item","yes","b","W:\Sussex\Consciousness and control\Exp 1 - stroop suggestion and PCE\Methods\Palfi_script","no","mono","no","18","no","black","no","Ok","NA","no","Female","768","legacy","C:/Users/User/Dropbox/Sussex/Consciousness and control/Exp 1 - stroop suggestion and PCE/Methods/Palfi_script/laptop_size/subject-3.csv","legacy","Interactive Ising","3.0.2","0","b","b","space","NA","804","804","9618","NA","2","legacy","1024","2","48000","-16","experiment","3","odd","276026","NA","90019","140983","80201","312905","312332","312870","313712","314701","266407","NA","266407","69482","313948","312368","NA","2370","NA","NA","261105","2371","315152","NA","144246","312330","312905","Stroop CI","45","124671","53","yes","1366","BLUE"
"83","85.1851851852","yes","85.1851851852","26","2323","2323","#ffffff","no","C","v;b;n;m","legacy","I have read and understood the information shown above","legacy","legacy","green","0","con","uniform","1","1","1","NA","0","0","0","0","0","49","49","49","49","49","0","0","5","0","49","49","0","0","NA","0","49","0","49","NA","0","49","49","12/06/16 15:01:58","The main experiment item","yes","n","W:\Sussex\Consciousness and control\Exp 1 - stroop suggestion and PCE\Methods\Palfi_script","no","mono","no","18","no","black","no","Ok","NA","no","Female","768","legacy","C:/Users/User/Dropbox/Sussex/Consciousness and control/Exp 1 - stroop suggestion and PCE/Methods/Palfi_script/laptop_size/subject-3.csv","legacy","Interactive Ising","3.0.2","0","n","n","space","NA","782","782","9618","NA","2","legacy","1024","2","48000","-16","experiment","3","odd","276026","NA","90019","140983","80201","315905","315332","315870","316690","317680","266407","NA","266407","69482","316926","315368","NA","2370","NA","NA","261105","2371","318130","NA","144246","315330","315905","Stroop CI","46","125453","54","yes","1366","GREEN"
"69","85.4545454545","yes","85.4545454545","26","2292","2292","#ffffff","no","C","v;b;n;m","legacy","I have read and understood the information shown above","legacy","legacy","blue","0","con","uniform","1","1","1","NA","0","0","0","0","0","50","50","50","50","50","0","0","5","0","50","50","0","0","NA","0","50","0","50","NA","0","50","50","12/06/16 15:01:58","The main experiment item","yes","b","W:\Sussex\Consciousness and control\Exp 1 - stroop suggestion and PCE\Methods\Palfi_script","no","mono","no","18","no","black","no","Ok","NA","no","Female","768","legacy","C:/Users/User/Dropbox/Sussex/Consciousness and control/Exp 1 - stroop suggestion and PCE/Methods/Palfi_script/laptop_size/subject-3.csv","legacy","Interactive Ising","3.0.2","0","b","b","space","NA","607","607","9618","NA","2","legacy","1024","2","48000","-16","experiment","3","odd","276026","NA","90019","140983","80201","318841","318268","318806","319451","320439","266407","NA","266407","69482","319687","318304","NA","2370","NA","NA","261105","2371","320889","NA","144246","318266","318841","Stroop CI","47","126060","55","yes","1366","BLUE"
"115","85.7142857143","yes","85.7142857143","26","2264","2264","#ffffff","no","C","v;b;n;m","legacy","I have read and understood the information shown above","legacy","legacy","#ffef36","0","con","uniform","1","1","1","NA","0","0","0","0","0","51","51","51","51","51","0","0","5","0","51","51","0","0","NA","0","51","0","51","NA","0","51","51","12/06/16 15:01:58","The main experiment item","yes","m","W:\Sussex\Consciousness and control\Exp 1 - stroop suggestion and PCE\Methods\Palfi_script","no","mono","no","18","no","black","no","Ok","NA","no","Female","768","legacy","C:/Users/User/Dropbox/Sussex/Consciousness and control/Exp 1 - stroop suggestion and PCE/Methods/Palfi_script/laptop_size/subject-3.csv","legacy","Interactive Ising","3.0.2","0","m","m","space","NA","757","757","9618","NA","2","legacy","1024","2","48000","-16","experiment","3","odd","276026","NA","90019","140983","80201","321589","321016","321554","322349","323339","266407","NA","266407","69482","322585","321051","NA","2370","NA","NA","261105","2371","323789","NA","144246","321014","321589","Stroop CI","48","126817","56","yes","1366","YELLOW"
"40","85.9649122807","yes","85.9649122807","26","2239","2239","#ffffff","no","C","v;b;n;m","legacy","I have read and understood the information shown above","legacy","legacy","red","0","con","uniform","1","1","1","NA","0","0","0","0","0","52","52","52","52","52","0","0","5","0","52","52","0","0","NA","0","52","0","52","NA","0","52","52","12/06/16 15:01:58","The main experiment item","yes","v","W:\Sussex\Consciousness and control\Exp 1 - stroop suggestion and PCE\Methods\Palfi_script","no","mono","no","18","no","black","no","Ok","NA","no","Female","768","legacy","C:/Users/User/Dropbox/Sussex/Consciousness and control/Exp 1 - stroop suggestion and PCE/Methods/Palfi_script/laptop_size/subject-3.csv","legacy","Interactive Ising","3.0.2","0","v","v","space","NA","831","831","9618","NA","2","legacy","1024","2","48000","-16","experiment","3","odd","276026","NA","90019","140983","80201","324543","323970","324507","325376","326366","266407","NA","266407","69482","325612","324005","NA","2370","NA","NA","261105","2371","326816","NA","144246","323967","324543","Stroop CI","49","127648","57","yes","1366","RED"
"28","86.2068965517","yes","86.2068965517","26","2210","2210","#ffffff","no","C","v;b;n;m","legacy","I have read and understood the information shown above","legacy","legacy","red","0","con","uniform","1","1","1","NA","0","0","0","0","0","53","53","53","53","53","0","0","5","0","53","53","0","0","NA","0","53","0","53","NA","0","53","53","12/06/16 15:01:58","The main experiment item","yes","v","W:\Sussex\Consciousness and control\Exp 1 - stroop suggestion and PCE\Methods\Palfi_script","no","mono","no","18","no","black","no","Ok","NA","no","Female","768","legacy","C:/Users/User/Dropbox/Sussex/Consciousness and control/Exp 1 - stroop suggestion and PCE/Methods/Palfi_script/laptop_size/subject-3.csv","legacy","Interactive Ising","3.0.2","0","v","v","space","NA","574","574","9618","NA","2","legacy","1024","2","48000","-16","experiment","3","odd","276026","NA","90019","140983","80201","327544","326972","327509","328121","329111","266407","NA","266407","69482","328357","327007","NA","2370","NA","NA","261105","2371","329561","NA","144246","326969","327544","Stroop CI","50","128222","58","yes","1366","RED"
"120","86.4406779661","yes","86.4406779661","26","2188","2188","#ffffff","no","C","v;b;n;m","legacy","I have read and understood the information shown above","legacy","legacy","#ffef36","0","con","uniform","1","1","1","NA","0","0","0","0","0","54","54","54","54","54","0","0","5","0","54","54","0","0","NA","0","54","0","54","NA","0","54","54","12/06/16 15:01:58","The main experiment item","yes","m","W:\Sussex\Consciousness and control\Exp 1 - stroop suggestion and PCE\Methods\Palfi_script","no","mono","no","18","no","black","no","Ok","NA","no","Female","768","legacy","C:/Users/User/Dropbox/Sussex/Consciousness and control/Exp 1 - stroop suggestion and PCE/Methods/Palfi_script/laptop_size/subject-3.csv","legacy","Interactive Ising","3.0.2","0","m","m","space","NA","870","870","9618","NA","2","legacy","1024","2","48000","-16","experiment","3","odd","276026","NA","90019","140983","80201","330363","329791","330328","331236","332226","266407","NA","266407","69482","331473","329826","NA","2370","NA","NA","261105","2371","332676","NA","144246","329789","330363","Stroop CI","51","129092","59","yes","1366","YELLOW"
"77","86.6666666667","yes","86.6666666667","26","2163","2163","#ffffff","no","C","v;b;n;m","legacy","I have read and understood the information shown above","legacy","legacy","green","0","con","uniform","1","1","1","NA","0","0","0","0","0","55","55","55","55","55","0","0","5","0","55","55","0","0","NA","0","55","0","55","NA","0","55","55","12/06/16 15:01:58","The main experiment item","yes","n","W:\Sussex\Consciousness and control\Exp 1 - stroop suggestion and PCE\Methods\Palfi_script","no","mono","no","18","no","black","no","Ok","NA","no","Female","768","legacy","C:/Users/User/Dropbox/Sussex/Consciousness and control/Exp 1 - stroop suggestion and PCE/Methods/Palfi_script/laptop_size/subject-3.csv","legacy","Interactive Ising","3.0.2","0","n","n","space","NA","692","692","9618","NA","2","legacy","1024","2","48000","-16","experiment","3","odd","276026","NA","90019","140983","80201","333451","332878","333416","334146","335135","266407","NA","266407","69482","334383","332914","NA","2370","NA","NA","261105","2371","335585","NA","144246","332876","333451","Stroop CI","52","129784","60","yes","1366","GREEN"
"26","86.8852459016","yes","86.8852459016","26","2141","2141","#ffffff","no","C","v;b;n;m","legacy","I have read and understood the information shown above","legacy","legacy","red","0","con","uniform","1","1","1","NA","0","0","0","0","0","56","56","56","56","56","0","0","5","0","56","56","0","0","NA","0","56","0","56","NA","0","56","56","12/06/16 15:01:58","The main experiment item","yes","v","W:\Sussex\Consciousness and control\Exp 1 - stroop suggestion and PCE\Methods\Palfi_script","no","mono","no","18","no","black","no","Ok","NA","no","Female","768","legacy","C:/Users/User/Dropbox/Sussex/Consciousness and control/Exp 1 - stroop suggestion and PCE/Methods/Palfi_script/laptop_size/subject-3.csv","legacy","Interactive Ising","3.0.2","0","v","v","space","NA","863","863","9618","NA","2","legacy","1024","2","48000","-16","experiment","3","odd","276026","NA","90019","140983","80201","336293","335721","336258","337159","338147","266407","NA","266407","69482","337395","335756","NA","2370","NA","NA","261105","2371","338597","NA","144246","335719","336293","Stroop CI","53","130647","61","yes","1366","RED"
"12","87.0967741935","yes","87.0967741935","26","2125","2125","#ffffff","no","C","v;b;n;m","legacy","I have read and understood the information shown above","legacy","legacy","blue","0","inc","uniform","1","1","1","NA","0","0","0","0","0","57","57","57","57","57","0","0","5","0","57","57","0","0","NA","0","57","0","57","NA","0","57","57","12/06/16 15:01:58","The main experiment item","yes","b","W:\Sussex\Consciousness and control\Exp 1 - stroop suggestion and PCE\Methods\Palfi_script","no","mono","no","18","no","black","no","Ok","NA","no","Female","768","legacy","C:/Users/User/Dropbox/Sussex/Consciousness and control/Exp 1 - stroop suggestion and PCE/Methods/Palfi_script/laptop_size/subject-3.csv","legacy","Interactive Ising","3.0.2","0","b","b","space","NA","1163","1163","9618","NA","2","legacy","1024","2","48000","-16","experiment","3","odd","276026","NA","90019","140983","80201","339320","338748","339285","340486","341474","266407","NA","266407","69482","340722","338783","NA","2370","NA","NA","261105","2371","341924","NA","144246","338745","339320","Stroop CI","54","131810","62","yes","1366","YELLOW"
"21","87.3015873016","yes","87.3015873016","26","2107","2107","#ffffff","no","C","v;b;n;m","legacy","I have read and understood the information shown above","legacy","legacy","green","0","neutral","uniform","1","1","1","NA","0","0","0","0","0","58","58","58","58","58","0","0","5","0","58","58","0","0","NA","0","58","0","58","NA","0","58","58","12/06/16 15:01:58","The main experiment item","yes","n","W:\Sussex\Consciousness and control\Exp 1 - stroop suggestion and PCE\Methods\Palfi_script","no","mono","no","18","no","black","no","Ok","NA","no","Female","768","legacy","C:/Users/User/Dropbox/Sussex/Consciousness and control/Exp 1 - stroop suggestion and PCE/Methods/Palfi_script/laptop_size/subject-3.csv","legacy","Interactive Ising","3.0.2","0","n","n","space","NA","986","986","9618","NA","2","legacy","1024","2","48000","-16","experiment","3","odd","276026","NA","90019","140983","80201","342662","342090","342627","343651","344640","266407","NA","266407","69482","343888","342125","NA","2370","NA","NA","261105","2371","345090","NA","144246","342088","342662","Stroop CI","55","132796","63","yes","1366","FLOWER"
"62","87.5","yes","87.5","26","2090","2090","#ffffff","no","C","v;b;n;m","legacy","I have read and understood the information shown above","legacy","legacy","blue","0","con","uniform","1","1","1","NA","0","0","0","0","0","59","59","59","59","59","0","0","5","0","59","59","0","0","NA","0","59","0","59","NA","0","59","59","12/06/16 15:01:58","The main experiment item","yes","b","W:\Sussex\Consciousness and control\Exp 1 - stroop suggestion and PCE\Methods\Palfi_script","no","mono","no","18","no","black","no","Ok","NA","no","Female","768","legacy","C:/Users/User/Dropbox/Sussex/Consciousness and control/Exp 1 - stroop suggestion and PCE/Methods/Palfi_script/laptop_size/subject-3.csv","legacy","Interactive Ising","3.0.2","0","b","b","space","NA","964","964","9618","NA","2","legacy","1024","2","48000","-16","experiment","3","odd","276026","NA","90019","140983","80201","345818","345246","345783","346785","347775","266407","NA","266407","69482","347023","345281","NA","2370","NA","NA","261105","2371","348225","NA","144246","345243","345818","Stroop CI","56","133760","64","yes","1366","BLUE"
"70","87.6923076923","yes","87.6923076923","26","2067","2067","#ffffff","no","C","v;b;n;m","legacy","I have read and understood the information shown above","legacy","legacy","blue","0","con","uniform","1","1","1","NA","0","0","0","0","0","60","60","60","60","60","0","0","5","0","60","60","0","0","NA","0","60","0","60","NA","0","60","60","12/06/16 15:01:58","The main experiment item","yes","b","W:\Sussex\Consciousness and control\Exp 1 - stroop suggestion and PCE\Methods\Palfi_script","no","mono","no","18","no","black","no","Ok","NA","no","Female","768","legacy","C:/Users/User/Dropbox/Sussex/Consciousness and control/Exp 1 - stroop suggestion and PCE/Methods/Palfi_script/laptop_size/subject-3.csv","legacy","Interactive Ising","3.0.2","0","b","b","space","NA","651","651","9618","NA","2","legacy","1024","2","48000","-16","experiment","3","odd","276026","NA","90019","140983","80201","348976","348404","348941","349631","350620","266407","NA","266407","69482","349868","348439","NA","2370","NA","NA","261105","2371","351070","NA","144246","348401","348976","Stroop CI","57","134411","65","yes","1366","BLUE"
"61","87.8787878788","yes","87.8787878788","26","2045","2045","#ffffff","no","C","v;b;n;m","legacy","I have read and understood the information shown above","legacy","legacy","blue","0","con","uniform","1","1","1","NA","0","0","0","0","0","61","61","61","61","61","0","0","5","0","61","61","0","0","NA","0","61","0","61","NA","0","61","61","12/06/16 15:01:58","The main experiment item","yes","b","W:\Sussex\Consciousness and control\Exp 1 - stroop suggestion and PCE\Methods\Palfi_script","no","mono","no","18","no","black","no","Ok","NA","no","Female","768","legacy","C:/Users/User/Dropbox/Sussex/Consciousness and control/Exp 1 - stroop suggestion and PCE/Methods/Palfi_script/laptop_size/subject-3.csv","legacy","Interactive Ising","3.0.2","0","b","b","space","NA","567","567","9618","NA","2","legacy","1024","2","48000","-16","experiment","3","odd","276026","NA","90019","140983","80201","351811","351239","351776","352381","353369","266407","NA","266407","69482","352617","351274","NA","2370","NA","NA","261105","2371","353820","NA","144246","351236","351811","Stroop CI","58","134978","66","yes","1366","BLUE"
"11","88.0597014925","yes","88.0597014925","26","2030","2030","#ffffff","no","C","v;b;n;m","legacy","I have read and understood the information shown above","legacy","legacy","blue","0","inc","uniform","1","1","1","NA","0","0","0","0","0","62","62","62","62","62","0","0","5","0","62","62","0","0","NA","0","62","0","62","NA","0","62","62","12/06/16 15:01:58","The main experiment item","yes","b","W:\Sussex\Consciousness and control\Exp 1 - stroop suggestion and PCE\Methods\Palfi_script","no","mono","no","18","no","black","no","Ok","NA","no","Female","768","legacy","C:/Users/User/Dropbox/Sussex/Consciousness and control/Exp 1 - stroop suggestion and PCE/Methods/Palfi_script/laptop_size/subject-3.csv","legacy","Interactive Ising","3.0.2","0","b","b","space","NA","1069","1069","9618","NA","2","legacy","1024","2","48000","-16","experiment","3","odd","276026","NA","90019","140983","80201","354541","353969","354506","355614","356603","266407","NA","266407","69482","355850","354004","NA","2370","NA","NA","261105","2371","357053","NA","144246","353967","354541","Stroop CI","59","136047","67","yes","1366","YELLOW"
"84","88.2352941176","yes","88.2352941176","26","2021","2021","#ffffff","no","C","v;b;n;m","legacy","I have read and understood the information shown above","legacy","legacy","green","0","con","uniform","1","1","1","NA","0","0","0","0","0","63","63","63","63","63","0","0","5","0","63","63","0","0","NA","0","63","0","63","NA","0","63","63","12/06/16 15:01:58","The main experiment item","yes","n","W:\Sussex\Consciousness and control\Exp 1 - stroop suggestion and PCE\Methods\Palfi_script","no","mono","no","18","no","black","no","Ok","NA","no","Female","768","legacy","C:/Users/User/Dropbox/Sussex/Consciousness and control/Exp 1 - stroop suggestion and PCE/Methods/Palfi_script/laptop_size/subject-3.csv","legacy","Interactive Ising","3.0.2","0","n","n","space","NA","1410","1410","9618","NA","2","legacy","1024","2","48000","-16","experiment","3","odd","276026","NA","90019","140983","80201","357774","357202","357739","359188","360176","266407","NA","266407","69482","359424","357237","NA","2370","NA","NA","261105","2371","360626","NA","144246","357200","357774","Stroop CI","60","137457","68","yes","1366","GREEN"
"1","88.4057971014","yes","88.4057971014","26","2013","2013","#ffffff","no","C","v;b;n;m","legacy","I have read and understood the information shown above","legacy","legacy","red","0","inc","uniform","1","1","1","NA","0","0","0","0","0","64","64","64","64","64","0","0","5","0","64","64","0","0","NA","0","64","0","64","NA","0","64","64","12/06/16 15:01:58","The main experiment item","yes","v","W:\Sussex\Consciousness and control\Exp 1 - stroop suggestion and PCE\Methods\Palfi_script","no","mono","no","18","no","black","no","Ok","NA","no","Female","768","legacy","C:/Users/User/Dropbox/Sussex/Consciousness and control/Exp 1 - stroop suggestion and PCE/Methods/Palfi_script/laptop_size/subject-3.csv","legacy","Interactive Ising","3.0.2","0","v","v","space","NA","1472","1472","9618","NA","2","legacy","1024","2","48000","-16","experiment","3","odd","276026","NA","90019","140983","80201","361630","361057","361595","363106","364094","266407","NA","266407","69482","363342","361093","NA","2370","NA","NA","261105","2371","364544","NA","144246","361055","361630","Stroop CI","61","138929","69","yes","1366","BLUE"
"3","88.5714285714","yes","88.5714285714","26","2001","2001","#ffffff","no","C","v;b;n;m","legacy","I have read and understood the information shown above","legacy","legacy","red","0","inc","uniform","1","1","1","NA","0","0","0","0","0","65","65","65","65","65","0","0","5","0","65","65","0","0","NA","0","65","0","65","NA","0","65","65","12/06/16 15:01:58","The main experiment item","yes","v","W:\Sussex\Consciousness and control\Exp 1 - stroop suggestion and PCE\Methods\Palfi_script","no","mono","no","18","no","black","no","Ok","NA","no","Female","768","legacy","C:/Users/User/Dropbox/Sussex/Consciousness and control/Exp 1 - stroop suggestion and PCE/Methods/Palfi_script/laptop_size/subject-3.csv","legacy","Interactive Ising","3.0.2","0","v","v","space","NA","1149","1149","9618","NA","2","legacy","1024","2","48000","-16","experiment","3","odd","276026","NA","90019","140983","80201","365253","364681","365218","366405","367395","266407","NA","266407","69482","366643","364716","NA","2370","NA","NA","261105","2371","367845","NA","144246","364679","365253","Stroop CI","62","140078","70","yes","1366","GREEN"
"31","88.7323943662","yes","88.7323943662","26","1983","1983","#ffffff","no","C","v;b;n;m","legacy","I have read and understood the information shown above","legacy","legacy","red","0","con","uniform","1","1","1","NA","0","0","0","0","0","66","66","66","66","66","0","0","5","0","66","66","0","0","NA","0","66","0","66","NA","0","66","66","12/06/16 15:01:58","The main experiment item","yes","v","W:\Sussex\Consciousness and control\Exp 1 - stroop suggestion and PCE\Methods\Palfi_script","no","mono","no","18","no","black","no","Ok","NA","no","Female","768","legacy","C:/Users/User/Dropbox/Sussex/Consciousness and control/Exp 1 - stroop suggestion and PCE/Methods/Palfi_script/laptop_size/subject-3.csv","legacy","Interactive Ising","3.0.2","0","v","v","space","NA","722","722","9618","NA","2","legacy","1024","2","48000","-16","experiment","3","odd","276026","NA","90019","140983","80201","368618","368046","368583","369344","370333","266407","NA","266407","69482","369581","368081","NA","2370","NA","NA","261105","2371","370783","NA","144246","368044","368618","Stroop CI","63","140800","71","yes","1366","RED"
"66","88.8888888889","yes","88.8888888889","26","1965","1965","#ffffff","no","C","v;b;n;m","legacy","I have read and understood the information shown above","legacy","legacy","blue","0","con","uniform","1","1","1","NA","0","0","0","0","0","67","67","67","67","67","0","0","5","0","67","67","0","0","NA","0","67","0","67","NA","0","67","67","12/06/16 15:01:58","The main experiment item","yes","b","W:\Sussex\Consciousness and control\Exp 1 - stroop suggestion and PCE\Methods\Palfi_script","no","mono","no","18","no","black","no","Ok","NA","no","Female","768","legacy","C:/Users/User/Dropbox/Sussex/Consciousness and control/Exp 1 - stroop suggestion and PCE/Methods/Palfi_script/laptop_size/subject-3.csv","legacy","Interactive Ising","3.0.2","0","b","b","space","NA","697","697","9618","NA","2","legacy","1024","2","48000","-16","experiment","3","odd","276026","NA","90019","140983","80201","371527","370955","371492","372227","373216","266407","NA","266407","69482","372464","370990","NA","2370","NA","NA","261105","2371","373666","NA","144246","370953","371527","Stroop CI","64","141497","72","yes","1366","BLUE"
"44","89.0410958904","yes","89.0410958904","26","1950","1950","#ffffff","no","C","v;b;n;m","legacy","I have read and understood the information shown above","legacy","legacy","red","0","con","uniform","1","1","1","NA","0","0","0","0","0","68","68","68","68","68","0","0","5","0","68","68","0","0","NA","0","68","0","68","NA","0","68","68","12/06/16 15:01:58","The main experiment item","yes","v","W:\Sussex\Consciousness and control\Exp 1 - stroop suggestion and PCE\Methods\Palfi_script","no","mono","no","18","no","black","no","Ok","NA","no","Female","768","legacy","C:/Users/User/Dropbox/Sussex/Consciousness and control/Exp 1 - stroop suggestion and PCE/Methods/Palfi_script/laptop_size/subject-3.csv","legacy","Interactive Ising","3.0.2","0","v","v","space","NA","894","894","9618","NA","2","legacy","1024","2","48000","-16","experiment","3","odd","276026","NA","90019","140983","80201","374398","373826","374363","375295","376283","266407","NA","266407","69482","375531","373861","NA","2370","NA","NA","261105","2371","376733","NA","144246","373824","374398","Stroop CI","65","142391","73","yes","1366","RED"
"63","89.1891891892","yes","89.1891891892","26","1939","1939","#ffffff","no","C","v;b;n;m","legacy","I have read and understood the information shown above","legacy","legacy","blue","0","con","uniform","1","1","1","NA","0","0","0","0","0","69","69","69","69","69","0","0","5","0","69","69","0","0","NA","0","69","0","69","NA","0","69","69","12/06/16 15:01:58","The main experiment item","yes","b","W:\Sussex\Consciousness and control\Exp 1 - stroop suggestion and PCE\Methods\Palfi_script","no","mono","no","18","no","black","no","Ok","NA","no","Female","768","legacy","C:/Users/User/Dropbox/Sussex/Consciousness and control/Exp 1 - stroop suggestion and PCE/Methods/Palfi_script/laptop_size/subject-3.csv","legacy","Interactive Ising","3.0.2","0","b","b","space","NA","1112","1112","9618","NA","2","legacy","1024","2","48000","-16","experiment","3","odd","276026","NA","90019","140983","80201","377479","376907","377444","378594","379582","266407","NA","266407","69482","378830","376942","NA","2370","NA","NA","261105","2371","380032","NA","144246","376905","377479","Stroop CI","66","143503","74","yes","1366","BLUE"
"106","89.3333333333","yes","89.3333333333","26","1926","1926","#ffffff","no","C","v;b;n;m","legacy","I have read and understood the information shown above","legacy","legacy","#ffef36","0","con","uniform","1","1","1","NA","0","0","0","0","0","70","70","70","70","70","0","0","5","0","70","70","0","0","NA","0","70","0","70","NA","0","70","70","12/06/16 15:01:58","The main experiment item","yes","m","W:\Sussex\Consciousness and control\Exp 1 - stroop suggestion and PCE\Methods\Palfi_script","no","mono","no","18","no","black","no","Ok","NA","no","Female","768","legacy","C:/Users/User/Dropbox/Sussex/Consciousness and control/Exp 1 - stroop suggestion and PCE/Methods/Palfi_script/laptop_size/subject-3.csv","legacy","Interactive Ising","3.0.2","0","m","m","space","NA","1012","1012","9618","NA","2","legacy","1024","2","48000","-16","experiment","3","odd","276026","NA","90019","140983","80201","380752","380180","380717","381768","382757","266407","NA","266407","69482","382005","380215","NA","2370","NA","NA","261105","2371","383207","NA","144246","380177","380752","Stroop CI","67","144515","75","yes","1366","YELLOW"
"18","88.1578947368","yes","88.1578947368","26","1920","1920","#ffffff","no","C","v;b;n;m","legacy","I have read and understood the information shown above","legacy","legacy","blue","0","neutral","uniform","0","0","1","NA","0","0","0","0","0","71","71","71","71","71","0","0","5","0","71","71","0","0","NA","0","71","0","71","NA","0","71","71","12/06/16 15:01:58","The main experiment item","yes","b","W:\Sussex\Consciousness and control\Exp 1 - stroop suggestion and PCE\Methods\Palfi_script","no","mono","no","18","no","black","no","Ok","NA","no","Female","768","legacy","C:/Users/User/Dropbox/Sussex/Consciousness and control/Exp 1 - stroop suggestion and PCE/Methods/Palfi_script/laptop_size/subject-3.csv","legacy","Interactive Ising","3.0.2","0","n","n","space","NA","1421","1421","9618","NA","2","legacy","1024","2","48000","-16","experiment","3","odd","276026","NA","90019","140983","80201","383975","383403","383940","385399","386389","266407","NA","266407","69482","382005","383438","NA","2370","NA","NA","385637","2371","386839","NA","144246","383400","383975","Stroop CI","67","145936","76","yes","1366","FLOWER"
"86","88.3116883117","yes","88.3116883117","26","1909","1909","#ffffff","no","C","v;b;n;m","legacy","I have read and understood the information shown above","legacy","legacy","green","0","con","uniform","1","1","1","NA","0","0","0","0","0","72","72","72","72","72","0","0","5","0","72","72","0","0","NA","0","72","0","72","NA","0","72","72","12/06/16 15:01:58","The main experiment item","yes","n","W:\Sussex\Consciousness and control\Exp 1 - stroop suggestion and PCE\Methods\Palfi_script","no","mono","no","18","no","black","no","Ok","NA","no","Female","768","legacy","C:/Users/User/Dropbox/Sussex/Consciousness and control/Exp 1 - stroop suggestion and PCE/Methods/Palfi_script/laptop_size/subject-3.csv","legacy","Interactive Ising","3.0.2","0","n","n","space","NA","1098","1098","9618","NA","2","legacy","1024","2","48000","-16","experiment","3","odd","276026","NA","90019","140983","80201","387755","387183","387720","388856","389844","266407","NA","266407","69482","389092","387218","NA","2370","NA","NA","385637","2371","390294","NA","144246","387180","387755","Stroop CI","68","147034","77","yes","1366","GREEN"
"45","88.4615384615","yes","88.4615384615","26","1893","1893","#ffffff","no","C","v;b;n;m","legacy","I have read and understood the information shown above","legacy","legacy","red","0","con","uniform","1","1","1","NA","0","0","0","0","0","73","73","73","73","73","0","0","5","0","73","73","0","0","NA","0","73","0","73","NA","0","73","73","12/06/16 15:01:58","The main experiment item","yes","v","W:\Sussex\Consciousness and control\Exp 1 - stroop suggestion and PCE\Methods\Palfi_script","no","mono","no","18","no","black","no","Ok","NA","no","Female","768","legacy","C:/Users/User/Dropbox/Sussex/Consciousness and control/Exp 1 - stroop suggestion and PCE/Methods/Palfi_script/laptop_size/subject-3.csv","legacy","Interactive Ising","3.0.2","0","v","v","space","NA","697","697","9618","NA","2","legacy","1024","2","48000","-16","experiment","3","odd","276026","NA","90019","140983","80201","391026","390454","390991","391726","392714","266407","NA","266407","69482","391962","390489","NA","2370","NA","NA","385637","2371","393164","NA","144246","390452","391026","Stroop CI","69","147731","78","yes","1366","RED"
"64","87.3417721519","yes","87.3417721519","26","1884","1884","#ffffff","no","C","v;b;n;m","legacy","I have read and understood the information shown above","legacy","legacy","blue","0","con","uniform","0","0","1","NA","0","0","0","0","0","74","74","74","74","74","0","0","5","0","74","74","0","0","NA","0","74","0","74","NA","0","74","74","12/06/16 15:01:58","The main experiment item","yes","b","W:\Sussex\Consciousness and control\Exp 1 - stroop suggestion and PCE\Methods\Palfi_script","no","mono","no","18","no","black","no","Ok","NA","no","Female","768","legacy","C:/Users/User/Dropbox/Sussex/Consciousness and control/Exp 1 - stroop suggestion and PCE/Methods/Palfi_script/laptop_size/subject-3.csv","legacy","Interactive Ising","3.0.2","0","n","n","space","NA","1179","1179","9618","NA","2","legacy","1024","2","48000","-16","experiment","3","odd","276026","NA","90019","140983","80201","393909","393337","393874","395091","396079","266407","NA","266407","69482","391962","393372","NA","2370","NA","NA","395327","2371","396529","NA","144246","393335","393909","Stroop CI","69","148910","79","yes","1366","BLUE"
"65","87.5","yes","87.5","26","1867","1867","#ffffff","no","C","v;b;n;m","legacy","I have read and understood the information shown above","legacy","legacy","blue","0","con","uniform","1","1","1","NA","0","0","0","0","0","75","75","75","75","75","0","0","5","0","75","75","0","0","NA","0","75","0","75","NA","0","75","75","12/06/16 15:01:58","The main experiment item","yes","b","W:\Sussex\Consciousness and control\Exp 1 - stroop suggestion and PCE\Methods\Palfi_script","no","mono","no","18","no","black","no","Ok","NA","no","Female","768","legacy","C:/Users/User/Dropbox/Sussex/Consciousness and control/Exp 1 - stroop suggestion and PCE/Methods/Palfi_script/laptop_size/subject-3.csv","legacy","Interactive Ising","3.0.2","0","b","b","space","NA","503","503","9618","NA","2","legacy","1024","2","48000","-16","experiment","3","odd","276026","NA","90019","140983","80201","397235","396663","397200","397741","398729","266407","NA","266407","69482","397977","396698","NA","2370","NA","NA","395327","2371","399179","NA","144246","396661","397235","Stroop CI","70","149413","80","yes","1366","BLUE"
"100","87.6543209877","yes","87.6543209877","26","1854","1854","#ffffff","no","C","v;b;n;m","legacy","I have read and understood the information shown above","legacy","legacy","#ffef36","0","con","uniform","1","1","1","NA","0","0","0","0","0","76","76","76","76","76","0","0","5","0","76","76","0","0","NA","0","76","0","76","NA","0","76","76","12/06/16 15:01:58","The main experiment item","yes","m","W:\Sussex\Consciousness and control\Exp 1 - stroop suggestion and PCE\Methods\Palfi_script","no","mono","no","18","no","black","no","Ok","NA","no","Female","768","legacy","C:/Users/User/Dropbox/Sussex/Consciousness and control/Exp 1 - stroop suggestion and PCE/Methods/Palfi_script/laptop_size/subject-3.csv","legacy","Interactive Ising","3.0.2","0","m","m","space","NA","837","837","9618","NA","2","legacy","1024","2","48000","-16","experiment","3","odd","276026","NA","90019","140983","80201","399900","399328","399865","400741","401730","266407","NA","266407","69482","400978","399363","NA","2370","NA","NA","395327","2371","402180","NA","144246","399326","399900","Stroop CI","71","150250","81","yes","1366","YELLOW"
"75","87.8048780488","yes","87.8048780488","26","1844","1844","#ffffff","no","C","v;b;n;m","legacy","I have read and understood the information shown above","legacy","legacy","green","0","con","uniform","1","1","1","NA","0","0","0","0","0","77","77","77","77","77","0","0","5","0","77","77","0","0","NA","0","77","0","77","NA","0","77","77","12/06/16 15:01:58","The main experiment item","yes","n","W:\Sussex\Consciousness and control\Exp 1 - stroop suggestion and PCE\Methods\Palfi_script","no","mono","no","18","no","black","no","Ok","NA","no","Female","768","legacy","C:/Users/User/Dropbox/Sussex/Consciousness and control/Exp 1 - stroop suggestion and PCE/Methods/Palfi_script/laptop_size/subject-3.csv","legacy","Interactive Ising","3.0.2","0","n","n","space","NA","983","983","9618","NA","2","legacy","1024","2","48000","-16","experiment","3","odd","276026","NA","90019","140983","80201","402907","402335","402872","403893","404882","266407","NA","266407","69482","404129","402370","NA","2370","NA","NA","395327","2371","405332","NA","144246","402333","402907","Stroop CI","72","151233","82","yes","1366","GREEN"
"111","87.9518072289","yes","87.9518072289","26","1830","1830","#ffffff","no","C","v;b;n;m","legacy","I have read and understood the information shown above","legacy","legacy","#ffef36","0","con","uniform","1","1","1","NA","0","0","0","0","0","78","78","78","78","78","0","0","5","0","78","78","0","0","NA","0","78","0","78","NA","0","78","78","12/06/16 15:01:58","The main experiment item","yes","m","W:\Sussex\Consciousness and control\Exp 1 - stroop suggestion and PCE\Methods\Palfi_script","no","mono","no","18","no","black","no","Ok","NA","no","Female","768","legacy","C:/Users/User/Dropbox/Sussex/Consciousness and control/Exp 1 - stroop suggestion and PCE/Methods/Palfi_script/laptop_size/subject-3.csv","legacy","Interactive Ising","3.0.2","0","m","m","space","NA","730","730","9618","NA","2","legacy","1024","2","48000","-16","experiment","3","odd","276026","NA","90019","140983","80201","406056","405484","406021","406789","407777","266407","NA","266407","69482","407025","405519","NA","2370","NA","NA","395327","2371","408227","NA","144246","405482","406056","Stroop CI","73","151963","83","yes","1366","YELLOW"
"7","88.0952380952","yes","88.0952380952","26","1826","1826","#ffffff","no","C","v;b;n;m","legacy","I have read and understood the information shown above","legacy","legacy","blue","0","inc","uniform","1","1","1","NA","0","0","0","0","0","79","79","79","79","79","0","0","5","0","79","79","0","0","NA","0","79","0","79","NA","0","79","79","12/06/16 15:01:58","The main experiment item","yes","b","W:\Sussex\Consciousness and control\Exp 1 - stroop suggestion and PCE\Methods\Palfi_script","no","mono","no","18","no","black","no","Ok","NA","no","Female","768","legacy","C:/Users/User/Dropbox/Sussex/Consciousness and control/Exp 1 - stroop suggestion and PCE/Methods/Palfi_script/laptop_size/subject-3.csv","legacy","Interactive Ising","3.0.2","0","b","b","space","NA","1428","1428","9618","NA","2","legacy","1024","2","48000","-16","experiment","3","odd","276026","NA","90019","140983","80201","409004","408432","408969","410434","411423","266407","NA","266407","69482","410671","408467","NA","2370","NA","NA","395327","2371","411873","NA","144246","408430","409004","Stroop CI","74","153391","84","yes","1366","RED"
"97","88.2352941176","yes","88.2352941176","26","1812","1812","#ffffff","no","C","v;b;n;m","legacy","I have read and understood the information shown above","legacy","legacy","#ffef36","0","con","uniform","1","1","1","NA","0","0","0","0","0","80","80","80","80","80","0","0","5","0","80","80","0","0","NA","0","80","0","80","NA","0","80","80","12/06/16 15:01:58","The main experiment item","yes","m","W:\Sussex\Consciousness and control\Exp 1 - stroop suggestion and PCE\Methods\Palfi_script","no","mono","no","18","no","black","no","Ok","NA","no","Female","768","legacy","C:/Users/User/Dropbox/Sussex/Consciousness and control/Exp 1 - stroop suggestion and PCE/Methods/Palfi_script/laptop_size/subject-3.csv","legacy","Interactive Ising","3.0.2","0","m","m","space","NA","685","685","9618","NA","2","legacy","1024","2","48000","-16","experiment","3","odd","276026","NA","90019","140983","80201","412605","412033","412570","413294","414282","266407","NA","266407","69482","413530","412068","NA","2370","NA","NA","395327","2371","414732","NA","144246","412031","412605","Stroop CI","75","154076","85","yes","1366","YELLOW"
"109","88.3720930233","yes","88.3720930233","26","1799","1799","#ffffff","no","C","v;b;n;m","legacy","I have read and understood the information shown above","legacy","legacy","#ffef36","0","con","uniform","1","1","1","NA","0","0","0","0","0","81","81","81","81","81","0","0","5","0","81","81","0","0","NA","0","81","0","81","NA","0","81","81","12/06/16 15:01:58","The main experiment item","yes","m","W:\Sussex\Consciousness and control\Exp 1 - stroop suggestion and PCE\Methods\Palfi_script","no","mono","no","18","no","black","no","Ok","NA","no","Female","768","legacy","C:/Users/User/Dropbox/Sussex/Consciousness and control/Exp 1 - stroop suggestion and PCE/Methods/Palfi_script/laptop_size/subject-3.csv","legacy","Interactive Ising","3.0.2","0","m","m","space","NA","685","685","9618","NA","2","legacy","1024","2","48000","-16","experiment","3","odd","276026","NA","90019","140983","80201","415488","414915","415453","416177","417165","266407","NA","266407","69482","416413","414951","NA","2370","NA","NA","395327","2371","417615","NA","144246","414913","415488","Stroop CI","76","154761","86","yes","1366","YELLOW"
"95","87.3563218391","yes","87.3563218391","26","1801","1801","#ffffff","no","C","v;b;n;m","legacy","I have read and understood the information shown above","legacy","legacy","green","0","con","uniform","0","0","1","NA","0","0","0","0","0","82","82","82","82","82","0","0","5","0","82","82","0","0","NA","0","82","0","82","NA","0","82","82","12/06/16 15:01:58","The main experiment item","yes","n","W:\Sussex\Consciousness and control\Exp 1 - stroop suggestion and PCE\Methods\Palfi_script","no","mono","no","18","no","black","no","Ok","NA","no","Female","768","legacy","C:/Users/User/Dropbox/Sussex/Consciousness and control/Exp 1 - stroop suggestion and PCE/Methods/Palfi_script/laptop_size/subject-3.csv","legacy","Interactive Ising","3.0.2","0","None","None","space","NA","2000","2000","9618","NA","2","legacy","1024","2","48000","-16","experiment","3","odd","276026","NA","90019","140983","80201","418327","417755","418292","420329","421318","266407","NA","266407","69482","416413","417790","NA","2370","NA","NA","420565","2371","421768","NA","144246","417752","418327","Stroop CI","76","156761","87","yes","1366","GREEN"
"8","87.5","yes","87.5","26","1796","1796","#ffffff","no","C","v;b;n;m","legacy","I have read and understood the information shown above","legacy","legacy","blue","0","inc","uniform","1","1","1","NA","0","0","0","0","0","83","83","83","83","83","0","0","5","0","83","83","0","0","NA","0","83","0","83","NA","0","83","83","12/06/16 15:01:58","The main experiment item","yes","b","W:\Sussex\Consciousness and control\Exp 1 - stroop suggestion and PCE\Methods\Palfi_script","no","mono","no","18","no","black","no","Ok","NA","no","Female","768","legacy","C:/Users/User/Dropbox/Sussex/Consciousness and control/Exp 1 - stroop suggestion and PCE/Methods/Palfi_script/laptop_size/subject-3.csv","legacy","Interactive Ising","3.0.2","0","b","b","space","NA","1318","1318","9618","NA","2","legacy","1024","2","48000","-16","experiment","3","odd","276026","NA","90019","140983","80201","422516","421944","422481","423837","424825","266407","NA","266407","69482","424073","421979","NA","2370","NA","NA","420565","2371","425275","NA","144246","421942","422516","Stroop CI","77","158079","88","yes","1366","RED"
"89","87.6404494382","yes","87.6404494382","26","1784","1784","#ffffff","no","C","v;b;n;m","legacy","I have read and understood the information shown above","legacy","legacy","green","0","con","uniform","1","1","1","NA","0","0","0","0","0","84","84","84","84","84","0","0","5","0","84","84","0","0","NA","0","84","0","84","NA","0","84","84","12/06/16 15:01:58","The main experiment item","yes","n","W:\Sussex\Consciousness and control\Exp 1 - stroop suggestion and PCE\Methods\Palfi_script","no","mono","no","18","no","black","no","Ok","NA","no","Female","768","legacy","C:/Users/User/Dropbox/Sussex/Consciousness and control/Exp 1 - stroop suggestion and PCE/Methods/Palfi_script/laptop_size/subject-3.csv","legacy","Interactive Ising","3.0.2","0","n","n","space","NA","733","733","9618","NA","2","legacy","1024","2","48000","-16","experiment","3","odd","276026","NA","90019","140983","80201","426043","425471","426008","426780","427769","266407","NA","266407","69482","427017","425506","NA","2370","NA","NA","420565","2371","428219","NA","144246","425468","426043","Stroop CI","78","158812","89","yes","1366","GREEN"
"43","87.7777777778","yes","87.7777777778","26","1772","1772","#ffffff","no","C","v;b;n;m","legacy","I have read and understood the information shown above","legacy","legacy","red","0","con","uniform","1","1","1","NA","0","0","0","0","0","85","85","85","85","85","0","0","5","0","85","85","0","0","NA","0","85","0","85","NA","0","85","85","12/06/16 15:01:58","The main experiment item","yes","v","W:\Sussex\Consciousness and control\Exp 1 - stroop suggestion and PCE\Methods\Palfi_script","no","mono","no","18","no","black","no","Ok","NA","no","Female","768","legacy","C:/Users/User/Dropbox/Sussex/Consciousness and control/Exp 1 - stroop suggestion and PCE/Methods/Palfi_script/laptop_size/subject-3.csv","legacy","Interactive Ising","3.0.2","0","v","v","space","NA","708","708","9618","NA","2","legacy","1024","2","48000","-16","experiment","3","odd","276026","NA","90019","140983","80201","428937","428365","428902","429648","430636","266407","NA","266407","69482","429884","428400","NA","2370","NA","NA","420565","2371","431086","NA","144246","428362","428937","Stroop CI","79","159520","90","yes","1366","RED"
"16","87.9120879121","yes","87.9120879121","26","1765","1765","#ffffff","no","C","v;b;n;m","legacy","I have read and understood the information shown above","legacy","legacy","blue","0","neutral","uniform","1","1","1","NA","0","0","0","0","0","86","86","86","86","86","0","0","5","0","86","86","0","0","NA","0","86","0","86","NA","0","86","86","12/06/16 15:01:58","The main experiment item","yes","b","W:\Sussex\Consciousness and control\Exp 1 - stroop suggestion and PCE\Methods\Palfi_script","no","mono","no","18","no","black","no","Ok","NA","no","Female","768","legacy","C:/Users/User/Dropbox/Sussex/Consciousness and control/Exp 1 - stroop suggestion and PCE/Methods/Palfi_script/laptop_size/subject-3.csv","legacy","Interactive Ising","3.0.2","0","b","b","space","NA","1112","1112","9618","NA","2","legacy","1024","2","48000","-16","experiment","3","odd","276026","NA","90019","140983","80201","431811","431239","431776","432929","433917","266407","NA","266407","69482","433165","431274","NA","2370","NA","NA","420565","2371","434367","NA","144246","431236","431811","Stroop CI","80","160632","91","yes","1366","LOT"
