"ID","acc","accept_status","accuracy","age","average_response_time","avg_rt","background","bidi","block","buttons","canvas_backend","checkbox_status","clock_backend","color_backend","colour","compensation","congruency","coordinates","correct","correct_answer","correct_button_block","correct_new_keyboard_response","count_C","count_I","count_Instruction","count_Practice_start","count_age","count_answer","count_blank","count_blank2","count_blank3","count_blank_4","count_break","count_break2","count_button_block","count_consent_form","count_correct_feedback","count_cross","count_end","count_experiment","count_feedback","count_gender","count_incorrect_feedback","count_information_sheet","count_logger","count_new_keyboard_response","count_practice","count_stroop","count_target","datetime","description","disable_garbage_collection","expected","experiment_path","font_bold","font_family","font_italic","font_size","font_underline","foreground","form_clicks","form_response","form_var","fullscreen","gender","height","keyboard_backend","logfile","mouse_backend","opensesame_codename","opensesame_version","repeat_cycle","response","response_answer","response_button_block","response_new_keyboard_response","response_time","response_time_answer","response_time_button_block","response_time_new_keyboard_response","round_decimals","sampler_backend","sound_buf_size","sound_channels","sound_freq","sound_sample_size","start","subject_nr","subject_parity","time_C","time_I","time_Instruction","time_Practice_start","time_age","time_answer","time_blank","time_blank2","time_blank3","time_blank_4","time_break","time_break2","time_button_block","time_consent_form","time_correct_feedback","time_cross","time_end","time_experiment","time_feedback","time_gender","time_incorrect_feedback","time_information_sheet","time_logger","time_new_keyboard_response","time_practice","time_stroop","time_target","title","total_correct","total_response_time","total_responses","uniform_coordinates","width","word"
"2","100","yes","100","26","15483","15483","#ffffff","no","practice","v;b;n;m","legacy","I have read and understood the information shown above","legacy","legacy","red","0","inc","uniform","1","1","1","NA","0","0","0","0","0","0","0","0","0","0","0","0","5","0","0","0","0","0","NA","0","0","0","0","NA","0","0","0","12/06/16 14:38:06","The main experiment item","yes","v","W:\Sussex\Consciousness and control\Exp 1 - stroop suggestion and PCE\Methods\Palfi_script","no","mono","no","18","no","black","no","Ok","NA","no","Male","768","legacy","C:/Users/User/Dropbox/Sussex/Consciousness and control/Exp 1 - stroop suggestion and PCE/Methods/Palfi_script/laptop_size/subject-1_IC.csv","legacy","Interactive Ising","3.0.2","0","v","v","space","NA","1417","1417","2748","NA","2","legacy","1024","2","48000","-16","experiment","1","odd","NA","NA","165870","218245","162160","221667","221094","221632","223087","224075","NA","NA","218245","151060","223323","221130","NA","2302","NA","NA","NA","2302","224525","NA","220994","221092","221667","Stroop IC","4","61933","4","yes","1366","GREEN"
"25","100","yes","100","26","12529","12529","#ffffff","no","practice","v;b;n;m","legacy","I have read and understood the information shown above","legacy","legacy","red","0","neutral","uniform","1","1","1","NA","0","0","0","0","0","1","1","1","1","1","0","0","5","0","1","1","0","0","NA","0","1","0","1","NA","0","1","1","12/06/16 14:38:06","The main experiment item","yes","v","W:\Sussex\Consciousness and control\Exp 1 - stroop suggestion and PCE\Methods\Palfi_script","no","mono","no","18","no","black","no","Ok","NA","no","Male","768","legacy","C:/Users/User/Dropbox/Sussex/Consciousness and control/Exp 1 - stroop suggestion and PCE/Methods/Palfi_script/laptop_size/subject-1_IC.csv","legacy","Interactive Ising","3.0.2","0","v","v","space","NA","716","716","2748","NA","2","legacy","1024","2","48000","-16","experiment","1","odd","NA","NA","165870","218245","162160","225279","224707","225244","225998","226986","NA","NA","218245","151060","226234","224742","NA","2302","NA","NA","NA","2302","227436","NA","220994","224705","225279","Stroop IC","5","62649","5","yes","1366","SHIP"
"1","100","yes","100","26","10608","10608","#ffffff","no","practice","v;b;n;m","legacy","I have read and understood the information shown above","legacy","legacy","red","0","inc","uniform","1","1","1","NA","0","0","0","0","0","2","2","2","2","2","0","0","5","0","2","2","0","0","NA","0","2","0","2","NA","0","2","2","12/06/16 14:38:06","The main experiment item","yes","v","W:\Sussex\Consciousness and control\Exp 1 - stroop suggestion and PCE\Methods\Palfi_script","no","mono","no","18","no","black","no","Ok","NA","no","Male","768","legacy","C:/Users/User/Dropbox/Sussex/Consciousness and control/Exp 1 - stroop suggestion and PCE/Methods/Palfi_script/laptop_size/subject-1_IC.csv","legacy","Interactive Ising","3.0.2","0","v","v","space","NA","1002","1002","2748","NA","2","legacy","1024","2","48000","-16","experiment","1","odd","NA","NA","165870","218245","162160","228207","227635","228172","229212","230200","NA","NA","218245","151060","229448","227670","NA","2302","NA","NA","NA","2302","230650","NA","220994","227633","228207","Stroop IC","6","63651","6","yes","1366","BLUE"
"32","100","yes","100","26","9269","9269","#ffffff","no","practice","v;b;n;m","legacy","I have read and understood the information shown above","legacy","legacy","green","0","neutral","uniform","1","1","1","NA","0","0","0","0","0","3","3","3","3","3","0","0","5","0","3","3","0","0","NA","0","3","0","3","NA","0","3","3","12/06/16 14:38:06","The main experiment item","yes","n","W:\Sussex\Consciousness and control\Exp 1 - stroop suggestion and PCE\Methods\Palfi_script","no","mono","no","18","no","black","no","Ok","NA","no","Male","768","legacy","C:/Users/User/Dropbox/Sussex/Consciousness and control/Exp 1 - stroop suggestion and PCE/Methods/Palfi_script/laptop_size/subject-1_IC.csv","legacy","Interactive Ising","3.0.2","0","n","n","space","NA","1232","1232","2748","NA","2","legacy","1024","2","48000","-16","experiment","1","odd","NA","NA","165870","218245","162160","231377","230804","231341","232613","233601","NA","NA","218245","151060","232849","230839","NA","2302","NA","NA","NA","2302","234051","NA","220994","230801","231377","Stroop IC","7","64883","7","yes","1366","SHIP"
"5","87.5","yes","87.5","26","8270","8270","#ffffff","no","practice","v;b;n;m","legacy","I have read and understood the information shown above","legacy","legacy","blue","0","inc","uniform","0","0","1","NA","0","0","0","0","0","4","4","4","4","4","0","0","5","0","4","4","0","0","NA","0","4","0","4","NA","0","4","4","12/06/16 14:38:06","The main experiment item","yes","b","W:\Sussex\Consciousness and control\Exp 1 - stroop suggestion and PCE\Methods\Palfi_script","no","mono","no","18","no","black","no","Ok","NA","no","Male","768","legacy","C:/Users/User/Dropbox/Sussex/Consciousness and control/Exp 1 - stroop suggestion and PCE/Methods/Palfi_script/laptop_size/subject-1_IC.csv","legacy","Interactive Ising","3.0.2","0","m","m","space","NA","1284","1284","2748","NA","2","legacy","1024","2","48000","-16","experiment","1","odd","NA","NA","165870","218245","162160","234768","234195","234733","236055","237047","NA","NA","218245","151060","232849","234231","NA","2302","NA","NA","236292","2302","237497","NA","220994","234193","234768","Stroop IC","7","66167","8","yes","1366","GREEN"
"9","88.8888888889","yes","88.8888888889","26","7511","7511","#ffffff","no","practice","v;b;n;m","legacy","I have read and understood the information shown above","legacy","legacy","green","0","inc","uniform","1","1","1","NA","0","0","0","0","0","5","5","5","5","5","0","0","5","0","5","5","0","0","NA","0","5","0","5","NA","0","5","5","12/06/16 14:38:06","The main experiment item","yes","n","W:\Sussex\Consciousness and control\Exp 1 - stroop suggestion and PCE\Methods\Palfi_script","no","mono","no","18","no","black","no","Ok","NA","no","Male","768","legacy","C:/Users/User/Dropbox/Sussex/Consciousness and control/Exp 1 - stroop suggestion and PCE/Methods/Palfi_script/laptop_size/subject-1_IC.csv","legacy","Interactive Ising","3.0.2","0","n","n","space","NA","1439","1439","2748","NA","2","legacy","1024","2","48000","-16","experiment","1","odd","NA","NA","165870","218245","162160","238198","237626","238162","239640","240628","NA","NA","218245","151060","239876","237661","NA","2302","NA","NA","236292","2302","241078","NA","220994","237624","238198","Stroop IC","8","67606","9","yes","1366","YELLOW"
"6","90","yes","90","26","6865","6865","#ffffff","no","practice","v;b;n;m","legacy","I have read and understood the information shown above","legacy","legacy","blue","0","inc","uniform","1","1","1","NA","0","0","0","0","0","6","6","6","6","6","0","0","5","0","6","6","0","0","NA","0","6","0","6","NA","0","6","6","12/06/16 14:38:06","The main experiment item","yes","b","W:\Sussex\Consciousness and control\Exp 1 - stroop suggestion and PCE\Methods\Palfi_script","no","mono","no","18","no","black","no","Ok","NA","no","Male","768","legacy","C:/Users/User/Dropbox/Sussex/Consciousness and control/Exp 1 - stroop suggestion and PCE/Methods/Palfi_script/laptop_size/subject-1_IC.csv","legacy","Interactive Ising","3.0.2","0","b","b","space","NA","1052","1052","2748","NA","2","legacy","1024","2","48000","-16","experiment","1","odd","NA","NA","165870","218245","162160","241790","241218","241755","242845","243833","NA","NA","218245","151060","243081","241253","NA","2302","NA","NA","236292","2302","244283","NA","220994","241216","241790","Stroop IC","9","68658","10","yes","1366","YELLOW"
"16","90.9090909091","yes","90.9090909091","26","6309","6309","#ffffff","no","practice","v;b;n;m","legacy","I have read and understood the information shown above","legacy","legacy","blue","0","con","uniform","1","1","1","NA","0","0","0","0","0","7","7","7","7","7","0","0","5","0","7","7","0","0","NA","0","7","0","7","NA","0","7","7","12/06/16 14:38:06","The main experiment item","yes","b","W:\Sussex\Consciousness and control\Exp 1 - stroop suggestion and PCE\Methods\Palfi_script","no","mono","no","18","no","black","no","Ok","NA","no","Male","768","legacy","C:/Users/User/Dropbox/Sussex/Consciousness and control/Exp 1 - stroop suggestion and PCE/Methods/Palfi_script/laptop_size/subject-1_IC.csv","legacy","Interactive Ising","3.0.2","0","b","b","space","NA","749","749","2748","NA","2","legacy","1024","2","48000","-16","experiment","1","odd","NA","NA","165870","218245","162160","244995","244423","244960","245747","246737","NA","NA","218245","151060","245983","244458","NA","2302","NA","NA","236292","2302","247187","NA","220994","244420","244995","Stroop IC","10","69407","11","yes","1366","BLUE"
"11","91.6666666667","yes","91.6666666667","26","5864","5864","#ffffff","no","practice","v;b;n;m","legacy","I have read and understood the information shown above","legacy","legacy","#ffef36","0","inc","uniform","1","1","1","NA","0","0","0","0","0","8","8","8","8","8","0","0","5","0","8","8","0","0","NA","0","8","0","8","NA","0","8","8","12/06/16 14:38:06","The main experiment item","yes","m","W:\Sussex\Consciousness and control\Exp 1 - stroop suggestion and PCE\Methods\Palfi_script","no","mono","no","18","no","black","no","Ok","NA","no","Male","768","legacy","C:/Users/User/Dropbox/Sussex/Consciousness and control/Exp 1 - stroop suggestion and PCE/Methods/Palfi_script/laptop_size/subject-1_IC.csv","legacy","Interactive Ising","3.0.2","0","m","m","space","NA","970","970","2748","NA","2","legacy","1024","2","48000","-16","experiment","1","odd","NA","NA","165870","218245","162160","247895","247323","247860","248868","249856","NA","NA","218245","151060","249104","247358","NA","2302","NA","NA","236292","2302","250306","NA","220994","247320","247895","Stroop IC","11","70377","12","yes","1366","BLUE"
"19","92.3076923077","yes","92.3076923077","26","5502","5502","#ffffff","no","practice","v;b;n;m","legacy","I have read and understood the information shown above","legacy","legacy","green","0","con","uniform","1","1","1","NA","0","0","0","0","0","9","9","9","9","9","0","0","5","0","9","9","0","0","NA","0","9","0","9","NA","0","9","9","12/06/16 14:38:06","The main experiment item","yes","n","W:\Sussex\Consciousness and control\Exp 1 - stroop suggestion and PCE\Methods\Palfi_script","no","mono","no","18","no","black","no","Ok","NA","no","Male","768","legacy","C:/Users/User/Dropbox/Sussex/Consciousness and control/Exp 1 - stroop suggestion and PCE/Methods/Palfi_script/laptop_size/subject-1_IC.csv","legacy","Interactive Ising","3.0.2","0","n","n","space","NA","1156","1156","2748","NA","2","legacy","1024","2","48000","-16","experiment","1","odd","NA","NA","165870","218245","162160","251122","250550","251087","252280","253269","NA","NA","218245","151060","252517","250585","NA","2302","NA","NA","236292","2302","253719","NA","220994","250547","251122","Stroop IC","12","71533","13","yes","1366","GREEN"
"18","92.8571428571","yes","92.8571428571","26","5170","5170","#ffffff","no","practice","v;b;n;m","legacy","I have read and understood the information shown above","legacy","legacy","blue","0","con","uniform","1","1","1","NA","0","0","0","0","0","10","10","10","10","10","0","0","5","0","10","10","0","0","NA","0","10","0","10","NA","0","10","10","12/06/16 14:38:06","The main experiment item","yes","b","W:\Sussex\Consciousness and control\Exp 1 - stroop suggestion and PCE\Methods\Palfi_script","no","mono","no","18","no","black","no","Ok","NA","no","Male","768","legacy","C:/Users/User/Dropbox/Sussex/Consciousness and control/Exp 1 - stroop suggestion and PCE/Methods/Palfi_script/laptop_size/subject-1_IC.csv","legacy","Interactive Ising","3.0.2","0","b","b","space","NA","860","860","2748","NA","2","legacy","1024","2","48000","-16","experiment","1","odd","NA","NA","165870","218245","162160","254435","253863","254400","255298","256286","NA","NA","218245","151060","255534","253898","NA","2302","NA","NA","236292","2302","256736","NA","220994","253860","254435","Stroop IC","13","72393","14","yes","1366","BLUE"
"36","93.3333333333","yes","93.3333333333","26","4896","4896","#ffffff","no","practice","v;b;n;m","legacy","I have read and understood the information shown above","legacy","legacy","#ffef36","0","neutral","uniform","1","1","1","NA","0","0","0","0","0","11","11","11","11","11","0","0","5","0","11","11","0","0","NA","0","11","0","11","NA","0","11","11","12/06/16 14:38:06","The main experiment item","yes","m","W:\Sussex\Consciousness and control\Exp 1 - stroop suggestion and PCE\Methods\Palfi_script","no","mono","no","18","no","black","no","Ok","NA","no","Male","768","legacy","C:/Users/User/Dropbox/Sussex/Consciousness and control/Exp 1 - stroop suggestion and PCE/Methods/Palfi_script/laptop_size/subject-1_IC.csv","legacy","Interactive Ising","3.0.2","0","m","m","space","NA","1061","1061","2748","NA","2","legacy","1024","2","48000","-16","experiment","1","odd","NA","NA","165870","218245","162160","257471","256899","257436","258534","259523","NA","NA","218245","151060","258771","256934","NA","2302","NA","NA","236292","2302","259973","NA","220994","256897","257471","Stroop IC","14","73454","15","yes","1366","KNIFE"
"7","93.75","yes","93.75","26","4664","4664","#ffffff","no","practice","v;b;n;m","legacy","I have read and understood the information shown above","legacy","legacy","green","0","inc","uniform","1","1","1","NA","0","0","0","0","0","12","12","12","12","12","0","0","5","0","12","12","0","0","NA","0","12","0","12","NA","0","12","12","12/06/16 14:38:06","The main experiment item","yes","n","W:\Sussex\Consciousness and control\Exp 1 - stroop suggestion and PCE\Methods\Palfi_script","no","mono","no","18","no","black","no","Ok","NA","no","Male","768","legacy","C:/Users/User/Dropbox/Sussex/Consciousness and control/Exp 1 - stroop suggestion and PCE/Methods/Palfi_script/laptop_size/subject-1_IC.csv","legacy","Interactive Ising","3.0.2","0","n","n","space","NA","1178","1178","2748","NA","2","legacy","1024","2","48000","-16","experiment","1","odd","NA","NA","165870","218245","162160","260693","260120","260658","261874","262864","NA","NA","218245","151060","262112","260156","NA","2302","NA","NA","236292","2302","263314","NA","220994","260118","260693","Stroop IC","15","74632","16","yes","1366","RED"
"20","88.2352941176","yes","88.2352941176","26","4507","4507","#ffffff","no","practice","v;b;n;m","legacy","I have read and understood the information shown above","legacy","legacy","green","0","con","uniform","0","0","1","NA","0","0","0","0","0","13","13","13","13","13","0","0","5","0","13","13","0","0","NA","0","13","0","13","NA","0","13","13","12/06/16 14:38:06","The main experiment item","yes","n","W:\Sussex\Consciousness and control\Exp 1 - stroop suggestion and PCE\Methods\Palfi_script","no","mono","no","18","no","black","no","Ok","NA","no","Male","768","legacy","C:/Users/User/Dropbox/Sussex/Consciousness and control/Exp 1 - stroop suggestion and PCE/Methods/Palfi_script/laptop_size/subject-1_IC.csv","legacy","Interactive Ising","3.0.2","0","None","None","space","NA","2000","2000","2748","NA","2","legacy","1024","2","48000","-16","experiment","1","odd","NA","NA","165870","218245","162160","264080","263508","264045","266082","267070","NA","NA","218245","151060","262112","263543","NA","2302","NA","NA","266318","2302","267520","NA","220994","263506","264080","Stroop IC","15","76632","17","yes","1366","GREEN"
"22","88.8888888889","yes","88.8888888889","26","4302","4302","#ffffff","no","practice","v;b;n;m","legacy","I have read and understood the information shown above","legacy","legacy","#ffef36","0","con","uniform","1","1","1","NA","0","0","0","0","0","14","14","14","14","14","0","0","5","0","14","14","0","0","NA","0","14","0","14","NA","0","14","14","12/06/16 14:38:06","The main experiment item","yes","m","W:\Sussex\Consciousness and control\Exp 1 - stroop suggestion and PCE\Methods\Palfi_script","no","mono","no","18","no","black","no","Ok","NA","no","Male","768","legacy","C:/Users/User/Dropbox/Sussex/Consciousness and control/Exp 1 - stroop suggestion and PCE/Methods/Palfi_script/laptop_size/subject-1_IC.csv","legacy","Interactive Ising","3.0.2","0","m","m","space","NA","814","814","2748","NA","2","legacy","1024","2","48000","-16","experiment","1","odd","NA","NA","165870","218245","162160","268238","267666","268203","269054","270044","NA","NA","218245","151060","269292","267701","NA","2302","NA","NA","266318","2302","270494","NA","220994","267664","268238","Stroop IC","16","77446","18","yes","1366","YELLOW"
"14","89.4736842105","yes","89.4736842105","26","4112","4112","#ffffff","no","practice","v;b;n;m","legacy","I have read and understood the information shown above","legacy","legacy","red","0","con","uniform","1","1","1","NA","0","0","0","0","0","15","15","15","15","15","0","0","5","0","15","15","0","0","NA","0","15","0","15","NA","0","15","15","12/06/16 14:38:06","The main experiment item","yes","v","W:\Sussex\Consciousness and control\Exp 1 - stroop suggestion and PCE\Methods\Palfi_script","no","mono","no","18","no","black","no","Ok","NA","no","Male","768","legacy","C:/Users/User/Dropbox/Sussex/Consciousness and control/Exp 1 - stroop suggestion and PCE/Methods/Palfi_script/laptop_size/subject-1_IC.csv","legacy","Interactive Ising","3.0.2","0","v","v","space","NA","695","695","2748","NA","2","legacy","1024","2","48000","-16","experiment","1","odd","NA","NA","165870","218245","162160","271214","270641","271179","271911","272900","NA","NA","218245","151060","272148","270677","NA","2302","NA","NA","266318","2302","273350","NA","220994","270639","271214","Stroop IC","17","78141","19","yes","1366","RED"
"24","90","yes","90","26","3953","3953","#ffffff","no","practice","v;b;n;m","legacy","I have read and understood the information shown above","legacy","legacy","#ffef36","0","con","uniform","1","1","1","NA","0","0","0","0","0","16","16","16","16","16","0","0","5","0","16","16","0","0","NA","0","16","0","16","NA","0","16","16","12/06/16 14:38:06","The main experiment item","yes","m","W:\Sussex\Consciousness and control\Exp 1 - stroop suggestion and PCE\Methods\Palfi_script","no","mono","no","18","no","black","no","Ok","NA","no","Male","768","legacy","C:/Users/User/Dropbox/Sussex/Consciousness and control/Exp 1 - stroop suggestion and PCE/Methods/Palfi_script/laptop_size/subject-1_IC.csv","legacy","Interactive Ising","3.0.2","0","m","m","space","NA","933","933","2748","NA","2","legacy","1024","2","48000","-16","experiment","1","odd","NA","NA","165870","218245","162160","274161","273588","274126","275097","276087","NA","NA","218245","151060","275333","273623","NA","2302","NA","NA","266318","2302","276537","NA","220994","273586","274161","Stroop IC","18","79074","20","yes","1366","YELLOW"
"34","90.4761904762","yes","90.4761904762","26","3807","3807","#ffffff","no","practice","v;b;n;m","legacy","I have read and understood the information shown above","legacy","legacy","#ffef36","0","neutral","uniform","1","1","1","NA","0","0","0","0","0","17","17","17","17","17","0","0","5","0","17","17","0","0","NA","0","17","0","17","NA","0","17","17","12/06/16 14:38:06","The main experiment item","yes","m","W:\Sussex\Consciousness and control\Exp 1 - stroop suggestion and PCE\Methods\Palfi_script","no","mono","no","18","no","black","no","Ok","NA","no","Male","768","legacy","C:/Users/User/Dropbox/Sussex/Consciousness and control/Exp 1 - stroop suggestion and PCE/Methods/Palfi_script/laptop_size/subject-1_IC.csv","legacy","Interactive Ising","3.0.2","0","m","m","space","NA","884","884","2748","NA","2","legacy","1024","2","48000","-16","experiment","1","odd","NA","NA","165870","218245","162160","277314","276741","277278","278200","279191","NA","NA","218245","151060","278437","276776","NA","2302","NA","NA","266318","2302","279641","NA","220994","276739","277314","Stroop IC","19","79958","21","yes","1366","LOT"
"26","90.9090909091","yes","90.9090909091","26","3667","3667","#ffffff","no","practice","v;b;n;m","legacy","I have read and understood the information shown above","legacy","legacy","red","0","neutral","uniform","1","1","1","NA","0","0","0","0","0","18","18","18","18","18","0","0","5","0","18","18","0","0","NA","0","18","0","18","NA","0","18","18","12/06/16 14:38:06","The main experiment item","yes","v","W:\Sussex\Consciousness and control\Exp 1 - stroop suggestion and PCE\Methods\Palfi_script","no","mono","no","18","no","black","no","Ok","NA","no","Male","768","legacy","C:/Users/User/Dropbox/Sussex/Consciousness and control/Exp 1 - stroop suggestion and PCE/Methods/Palfi_script/laptop_size/subject-1_IC.csv","legacy","Interactive Ising","3.0.2","0","v","v","space","NA","733","733","2748","NA","2","legacy","1024","2","48000","-16","experiment","1","odd","NA","NA","165870","218245","162160","280397","279824","280361","281133","282123","NA","NA","218245","151060","281371","279859","NA","2302","NA","NA","266318","2302","282574","NA","220994","279822","280396","Stroop IC","20","80691","22","yes","1366","KNIFE"
"10","91.3043478261","yes","91.3043478261","26","3547","3547","#ffffff","no","practice","v;b;n;m","legacy","I have read and understood the information shown above","legacy","legacy","#ffef36","0","inc","uniform","1","1","1","NA","0","0","0","0","0","19","19","19","19","19","0","0","5","0","19","19","0","0","NA","0","19","0","19","NA","0","19","19","12/06/16 14:38:06","The main experiment item","yes","m","W:\Sussex\Consciousness and control\Exp 1 - stroop suggestion and PCE\Methods\Palfi_script","no","mono","no","18","no","black","no","Ok","NA","no","Male","768","legacy","C:/Users/User/Dropbox/Sussex/Consciousness and control/Exp 1 - stroop suggestion and PCE/Methods/Palfi_script/laptop_size/subject-1_IC.csv","legacy","Interactive Ising","3.0.2","0","m","m","space","NA","902","902","2748","NA","2","legacy","1024","2","48000","-16","experiment","1","odd","NA","NA","165870","218245","162160","283324","282752","283289","284229","285217","NA","NA","218245","151060","284465","282787","NA","2302","NA","NA","266318","2302","285667","NA","220994","282749","283324","Stroop IC","21","81593","23","yes","1366","RED"
"35","91.6666666667","yes","91.6666666667","26","3440","3440","#ffffff","no","practice","v;b;n;m","legacy","I have read and understood the information shown above","legacy","legacy","#ffef36","0","neutral","uniform","1","1","1","NA","0","0","0","0","0","20","20","20","20","20","0","0","5","0","20","20","0","0","NA","0","20","0","20","NA","0","20","20","12/06/16 14:38:06","The main experiment item","yes","m","W:\Sussex\Consciousness and control\Exp 1 - stroop suggestion and PCE\Methods\Palfi_script","no","mono","no","18","no","black","no","Ok","NA","no","Male","768","legacy","C:/Users/User/Dropbox/Sussex/Consciousness and control/Exp 1 - stroop suggestion and PCE/Methods/Palfi_script/laptop_size/subject-1_IC.csv","legacy","Interactive Ising","3.0.2","0","m","m","space","NA","987","987","2748","NA","2","legacy","1024","2","48000","-16","experiment","1","odd","NA","NA","165870","218245","162160","286471","285899","286436","287461","288451","NA","NA","218245","151060","287697","285934","NA","2302","NA","NA","266318","2302","288901","NA","220994","285897","286471","Stroop IC","22","82580","24","yes","1366","SHIP"
"28","92","yes","92","26","3334","3334","#ffffff","no","practice","v;b;n;m","legacy","I have read and understood the information shown above","legacy","legacy","blue","0","neutral","uniform","1","1","1","NA","0","0","0","0","0","21","21","21","21","21","0","0","5","0","21","21","0","0","NA","0","21","0","21","NA","0","21","21","12/06/16 14:38:06","The main experiment item","yes","b","W:\Sussex\Consciousness and control\Exp 1 - stroop suggestion and PCE\Methods\Palfi_script","no","mono","no","18","no","black","no","Ok","NA","no","Male","768","legacy","C:/Users/User/Dropbox/Sussex/Consciousness and control/Exp 1 - stroop suggestion and PCE/Methods/Palfi_script/laptop_size/subject-1_IC.csv","legacy","Interactive Ising","3.0.2","0","b","b","space","NA","787","787","2748","NA","2","legacy","1024","2","48000","-16","experiment","1","odd","NA","NA","165870","218245","162160","289601","289029","289566","290391","291380","NA","NA","218245","151060","290627","289064","NA","2302","NA","NA","266318","2302","291830","NA","220994","289027","289601","Stroop IC","23","83367","25","yes","1366","LOT"
"23","92.3076923077","yes","92.3076923077","26","3238","3238","#ffffff","no","practice","v;b;n;m","legacy","I have read and understood the information shown above","legacy","legacy","#ffef36","0","con","uniform","1","1","1","NA","0","0","0","0","0","22","22","22","22","22","0","0","5","0","22","22","0","0","NA","0","22","0","22","NA","0","22","22","12/06/16 14:38:06","The main experiment item","yes","m","W:\Sussex\Consciousness and control\Exp 1 - stroop suggestion and PCE\Methods\Palfi_script","no","mono","no","18","no","black","no","Ok","NA","no","Male","768","legacy","C:/Users/User/Dropbox/Sussex/Consciousness and control/Exp 1 - stroop suggestion and PCE/Methods/Palfi_script/laptop_size/subject-1_IC.csv","legacy","Interactive Ising","3.0.2","0","m","m","space","NA","822","822","2748","NA","2","legacy","1024","2","48000","-16","experiment","1","odd","NA","NA","165870","218245","162160","292556","291984","292521","293381","294369","NA","NA","218245","151060","293617","292019","NA","2302","NA","NA","266318","2302","294819","NA","220994","291981","292556","Stroop IC","24","84189","26","yes","1366","YELLOW"
"13","92.5925925926","yes","92.5925925926","26","3149","3149","#ffffff","no","practice","v;b;n;m","legacy","I have read and understood the information shown above","legacy","legacy","red","0","con","uniform","1","1","1","NA","0","0","0","0","0","23","23","23","23","23","0","0","5","0","23","23","0","0","NA","0","23","0","23","NA","0","23","23","12/06/16 14:38:06","The main experiment item","yes","v","W:\Sussex\Consciousness and control\Exp 1 - stroop suggestion and PCE\Methods\Palfi_script","no","mono","no","18","no","black","no","Ok","NA","no","Male","768","legacy","C:/Users/User/Dropbox/Sussex/Consciousness and control/Exp 1 - stroop suggestion and PCE/Methods/Palfi_script/laptop_size/subject-1_IC.csv","legacy","Interactive Ising","3.0.2","0","v","v","space","NA","860","860","2748","NA","2","legacy","1024","2","48000","-16","experiment","1","odd","NA","NA","165870","218245","162160","295552","294980","295517","296415","297407","NA","NA","218245","151060","296653","295015","NA","2302","NA","NA","266318","2302","297857","NA","220994","294978","295552","Stroop IC","25","85049","27","yes","1366","RED"
"4","92.8571428571","yes","92.8571428571","26","3059","3059","#ffffff","no","practice","v;b;n;m","legacy","I have read and understood the information shown above","legacy","legacy","blue","0","inc","uniform","1","1","1","NA","0","0","0","0","0","24","24","24","24","24","0","0","5","0","24","24","0","0","NA","0","24","0","24","NA","0","24","24","12/06/16 14:38:06","The main experiment item","yes","b","W:\Sussex\Consciousness and control\Exp 1 - stroop suggestion and PCE\Methods\Palfi_script","no","mono","no","18","no","black","no","Ok","NA","no","Male","768","legacy","C:/Users/User/Dropbox/Sussex/Consciousness and control/Exp 1 - stroop suggestion and PCE/Methods/Palfi_script/laptop_size/subject-1_IC.csv","legacy","Interactive Ising","3.0.2","0","b","b","space","NA","622","622","2748","NA","2","legacy","1024","2","48000","-16","experiment","1","odd","NA","NA","165870","218245","162160","298563","297991","298528","299189","300178","NA","NA","218245","151060","299425","298026","NA","2302","NA","NA","266318","2302","300629","NA","220994","297989","298563","Stroop IC","26","85671","28","yes","1366","RED"
"29","93.1034482759","yes","93.1034482759","26","2986","2986","#ffffff","no","practice","v;b;n;m","legacy","I have read and understood the information shown above","legacy","legacy","blue","0","neutral","uniform","1","1","1","NA","0","0","0","0","0","25","25","25","25","25","0","0","5","0","25","25","0","0","NA","0","25","0","25","NA","0","25","25","12/06/16 14:38:06","The main experiment item","yes","b","W:\Sussex\Consciousness and control\Exp 1 - stroop suggestion and PCE\Methods\Palfi_script","no","mono","no","18","no","black","no","Ok","NA","no","Male","768","legacy","C:/Users/User/Dropbox/Sussex/Consciousness and control/Exp 1 - stroop suggestion and PCE/Methods/Palfi_script/laptop_size/subject-1_IC.csv","legacy","Interactive Ising","3.0.2","0","b","b","space","NA","929","929","2748","NA","2","legacy","1024","2","48000","-16","experiment","1","odd","NA","NA","165870","218245","162160","301341","300769","301306","302274","303262","NA","NA","218245","151060","302510","300804","NA","2302","NA","NA","266318","2302","303712","NA","220994","300767","301341","Stroop IC","27","86600","29","yes","1366","KNIFE"
"33","90","yes","90","26","2917","2917","#ffffff","no","practice","v;b;n;m","legacy","I have read and understood the information shown above","legacy","legacy","green","0","neutral","uniform","0","0","1","NA","0","0","0","0","0","26","26","26","26","26","0","0","5","0","26","26","0","0","NA","0","26","0","26","NA","0","26","26","12/06/16 14:38:06","The main experiment item","yes","n","W:\Sussex\Consciousness and control\Exp 1 - stroop suggestion and PCE\Methods\Palfi_script","no","mono","no","18","no","black","no","Ok","NA","no","Male","768","legacy","C:/Users/User/Dropbox/Sussex/Consciousness and control/Exp 1 - stroop suggestion and PCE/Methods/Palfi_script/laptop_size/subject-1_IC.csv","legacy","Interactive Ising","3.0.2","0","m","m","space","NA","921","921","2748","NA","2","legacy","1024","2","48000","-16","experiment","1","odd","NA","NA","165870","218245","162160","304412","303840","304377","305335","306324","NA","NA","218245","151060","302510","303875","NA","2302","NA","NA","305572","2302","306774","NA","220994","303838","304412","Stroop IC","27","87521","30","yes","1366","FLOWER"
"3","90.3225806452","yes","90.3225806452","26","2842","2842","#ffffff","no","practice","v;b;n;m","legacy","I have read and understood the information shown above","legacy","legacy","red","0","inc","uniform","1","1","1","NA","0","0","0","0","0","27","27","27","27","27","0","0","5","0","27","27","0","0","NA","0","27","0","27","NA","0","27","27","12/06/16 14:38:06","The main experiment item","yes","v","W:\Sussex\Consciousness and control\Exp 1 - stroop suggestion and PCE\Methods\Palfi_script","no","mono","no","18","no","black","no","Ok","NA","no","Male","768","legacy","C:/Users/User/Dropbox/Sussex/Consciousness and control/Exp 1 - stroop suggestion and PCE/Methods/Palfi_script/laptop_size/subject-1_IC.csv","legacy","Interactive Ising","3.0.2","0","v","v","space","NA","607","607","2748","NA","2","legacy","1024","2","48000","-16","experiment","1","odd","NA","NA","165870","218245","162160","307489","306916","307454","308098","309091","NA","NA","218245","151060","308337","306952","NA","2302","NA","NA","305572","2302","309541","NA","220994","306914","307489","Stroop IC","28","88128","31","yes","1366","YELLOW"
"21","90.625","yes","90.625","26","2779","2779","#ffffff","no","practice","v;b;n;m","legacy","I have read and understood the information shown above","legacy","legacy","green","0","con","uniform","1","1","1","NA","0","0","0","0","0","28","28","28","28","28","0","0","5","0","28","28","0","0","NA","0","28","0","28","NA","0","28","28","12/06/16 14:38:06","The main experiment item","yes","n","W:\Sussex\Consciousness and control\Exp 1 - stroop suggestion and PCE\Methods\Palfi_script","no","mono","no","18","no","black","no","Ok","NA","no","Male","768","legacy","C:/Users/User/Dropbox/Sussex/Consciousness and control/Exp 1 - stroop suggestion and PCE/Methods/Palfi_script/laptop_size/subject-1_IC.csv","legacy","Interactive Ising","3.0.2","0","n","n","space","NA","823","823","2748","NA","2","legacy","1024","2","48000","-16","experiment","1","odd","NA","NA","165870","218245","162160","310263","309690","310228","311089","312079","NA","NA","218245","151060","311327","309725","NA","2302","NA","NA","305572","2302","312529","NA","220994","309687","310263","Stroop IC","29","88951","32","yes","1366","GREEN"
"17","90.9090909091","yes","90.9090909091","26","2714","2714","#ffffff","no","practice","v;b;n;m","legacy","I have read and understood the information shown above","legacy","legacy","blue","0","con","uniform","1","1","1","NA","0","0","0","0","0","29","29","29","29","29","0","0","5","0","29","29","0","0","NA","0","29","0","29","NA","0","29","29","12/06/16 14:38:06","The main experiment item","yes","b","W:\Sussex\Consciousness and control\Exp 1 - stroop suggestion and PCE\Methods\Palfi_script","no","mono","no","18","no","black","no","Ok","NA","no","Male","768","legacy","C:/Users/User/Dropbox/Sussex/Consciousness and control/Exp 1 - stroop suggestion and PCE/Methods/Palfi_script/laptop_size/subject-1_IC.csv","legacy","Interactive Ising","3.0.2","0","b","b","space","NA","632","632","2748","NA","2","legacy","1024","2","48000","-16","experiment","1","odd","NA","NA","165870","218245","162160","313258","312685","313223","313893","314883","NA","NA","218245","151060","314131","312721","NA","2302","NA","NA","305572","2302","315333","NA","220994","312683","313258","Stroop IC","30","89583","33","yes","1366","BLUE"
"12","91.1764705882","yes","91.1764705882","26","2653","2653","#ffffff","no","practice","v;b;n;m","legacy","I have read and understood the information shown above","legacy","legacy","#ffef36","0","inc","uniform","1","1","1","NA","0","0","0","0","0","30","30","30","30","30","0","0","5","0","30","30","0","0","NA","0","30","0","30","NA","0","30","30","12/06/16 14:38:06","The main experiment item","yes","m","W:\Sussex\Consciousness and control\Exp 1 - stroop suggestion and PCE\Methods\Palfi_script","no","mono","no","18","no","black","no","Ok","NA","no","Male","768","legacy","C:/Users/User/Dropbox/Sussex/Consciousness and control/Exp 1 - stroop suggestion and PCE/Methods/Palfi_script/laptop_size/subject-1_IC.csv","legacy","Interactive Ising","3.0.2","0","m","m","space","NA","625","625","2748","NA","2","legacy","1024","2","48000","-16","experiment","1","odd","NA","NA","165870","218245","162160","316035","315463","316000","316663","317653","NA","NA","218245","151060","316899","315498","NA","2302","NA","NA","305572","2302","318103","NA","220994","315461","316035","Stroop IC","31","90208","34","yes","1366","GREEN"
"30","91.4285714286","yes","91.4285714286","26","2597","2597","#ffffff","no","practice","v;b;n;m","legacy","I have read and understood the information shown above","legacy","legacy","blue","0","neutral","uniform","1","1","1","NA","0","0","0","0","0","31","31","31","31","31","0","0","5","0","31","31","0","0","NA","0","31","0","31","NA","0","31","31","12/06/16 14:38:06","The main experiment item","yes","b","W:\Sussex\Consciousness and control\Exp 1 - stroop suggestion and PCE\Methods\Palfi_script","no","mono","no","18","no","black","no","Ok","NA","no","Male","768","legacy","C:/Users/User/Dropbox/Sussex/Consciousness and control/Exp 1 - stroop suggestion and PCE/Methods/Palfi_script/laptop_size/subject-1_IC.csv","legacy","Interactive Ising","3.0.2","0","b","b","space","NA","716","716","2748","NA","2","legacy","1024","2","48000","-16","experiment","1","odd","NA","NA","165870","218245","162160","318921","318349","318886","319642","320631","NA","NA","218245","151060","319879","318384","NA","2302","NA","NA","305572","2302","321081","NA","220994","318347","318921","Stroop IC","32","90924","35","yes","1366","FLOWER"
"15","91.6666666667","yes","91.6666666667","26","2542","2542","#ffffff","no","practice","v;b;n;m","legacy","I have read and understood the information shown above","legacy","legacy","red","0","con","uniform","1","1","1","NA","0","0","0","0","0","32","32","32","32","32","0","0","5","0","32","32","0","0","NA","0","32","0","32","NA","0","32","32","12/06/16 14:38:06","The main experiment item","yes","v","W:\Sussex\Consciousness and control\Exp 1 - stroop suggestion and PCE\Methods\Palfi_script","no","mono","no","18","no","black","no","Ok","NA","no","Male","768","legacy","C:/Users/User/Dropbox/Sussex/Consciousness and control/Exp 1 - stroop suggestion and PCE/Methods/Palfi_script/laptop_size/subject-1_IC.csv","legacy","Interactive Ising","3.0.2","0","v","v","space","NA","612","612","2748","NA","2","legacy","1024","2","48000","-16","experiment","1","odd","NA","NA","165870","218245","162160","321789","321216","321754","322406","323394","NA","NA","218245","151060","322642","321252","NA","2302","NA","NA","305572","2302","323844","NA","220994","321214","321789","Stroop IC","33","91536","36","yes","1366","RED"
"27","91.8918918919","yes","91.8918918919","26","2488","2488","#ffffff","no","practice","v;b;n;m","legacy","I have read and understood the information shown above","legacy","legacy","red","0","neutral","uniform","1","1","1","NA","0","0","0","0","0","33","33","33","33","33","0","0","5","0","33","33","0","0","NA","0","33","0","33","NA","0","33","33","12/06/16 14:38:06","The main experiment item","yes","v","W:\Sussex\Consciousness and control\Exp 1 - stroop suggestion and PCE\Methods\Palfi_script","no","mono","no","18","no","black","no","Ok","NA","no","Male","768","legacy","C:/Users/User/Dropbox/Sussex/Consciousness and control/Exp 1 - stroop suggestion and PCE/Methods/Palfi_script/laptop_size/subject-1_IC.csv","legacy","Interactive Ising","3.0.2","0","v","v","space","NA","552","552","2748","NA","2","legacy","1024","2","48000","-16","experiment","1","odd","NA","NA","165870","218245","162160","324568","323995","324532","325123","326114","NA","NA","218245","151060","325359","324030","NA","2302","NA","NA","305572","2302","326564","NA","220994","323993","324568","Stroop IC","34","92088","37","yes","1366","FLOWER"
"31","92.1052631579","yes","92.1052631579","26","2446","2446","#ffffff","no","practice","v;b;n;m","legacy","I have read and understood the information shown above","legacy","legacy","green","0","neutral","uniform","1","1","1","NA","0","0","0","0","0","34","34","34","34","34","0","0","5","0","34","34","0","0","NA","0","34","0","34","NA","0","34","34","12/06/16 14:38:06","The main experiment item","yes","n","W:\Sussex\Consciousness and control\Exp 1 - stroop suggestion and PCE\Methods\Palfi_script","no","mono","no","18","no","black","no","Ok","NA","no","Male","768","legacy","C:/Users/User/Dropbox/Sussex/Consciousness and control/Exp 1 - stroop suggestion and PCE/Methods/Palfi_script/laptop_size/subject-1_IC.csv","legacy","Interactive Ising","3.0.2","0","n","n","space","NA","875","875","2748","NA","2","legacy","1024","2","48000","-16","experiment","1","odd","NA","NA","165870","218245","162160","327268","326695","327232","328146","329134","NA","NA","218245","151060","328382","326730","NA","2302","NA","NA","305572","2302","329584","NA","220994","326693","327267","Stroop IC","35","92963","38","yes","1366","LOT"
"8","92.3076923077","yes","92.3076923077","26","2401","2401","#ffffff","no","practice","v;b;n;m","legacy","I have read and understood the information shown above","legacy","legacy","green","0","inc","uniform","1","1","1","NA","0","0","0","0","0","35","35","35","35","35","0","0","5","0","35","35","0","0","NA","0","35","0","35","NA","0","35","35","12/06/16 14:38:06","The main experiment item","yes","n","W:\Sussex\Consciousness and control\Exp 1 - stroop suggestion and PCE\Methods\Palfi_script","no","mono","no","18","no","black","no","Ok","NA","no","Male","768","legacy","C:/Users/User/Dropbox/Sussex/Consciousness and control/Exp 1 - stroop suggestion and PCE/Methods/Palfi_script/laptop_size/subject-1_IC.csv","legacy","Interactive Ising","3.0.2","0","n","n","space","NA","711","711","2748","NA","2","legacy","1024","2","48000","-16","experiment","1","odd","NA","NA","165870","218245","162160","330287","329713","330252","331001","331990","NA","NA","218245","151060","331238","329749","NA","2302","NA","NA","305572","2302","332440","NA","220994","329711","330287","Stroop IC","36","93674","39","yes","1366","BLUE"
"40","92.6829268293","yes","92.6829268293","26","2409","2409","#ffffff","no","I","v;b;n;m","legacy","I have read and understood the information shown above","legacy","legacy","blue","0","inc","uniform","1","1","1","NA","0","0","0","0","0","36","36","36","36","36","0","0","5","0","36","36","0","0","NA","0","36","0","36","NA","0","36","36","12/06/16 14:38:06","The main experiment item","yes","b","W:\Sussex\Consciousness and control\Exp 1 - stroop suggestion and PCE\Methods\Palfi_script","no","mono","no","18","no","black","no","Ok","NA","no","Male","768","legacy","C:/Users/User/Dropbox/Sussex/Consciousness and control/Exp 1 - stroop suggestion and PCE/Methods/Palfi_script/laptop_size/subject-1_IC.csv","legacy","Interactive Ising","3.0.2","0","b","b","space","NA","965","965","4145","NA","2","legacy","1024","2","48000","-16","experiment","1","odd","NA","336625","165870","218245","162160","337299","336726","337264","338267","339258","332480","NA","332480","151060","338505","336762","NA","2302","NA","NA","305572","2302","339708","NA","220994","336724","337299","Stroop IC","38","98784","41","yes","1366","GREEN"
"110","92.8571428571","yes","92.8571428571","26","2366","2366","#ffffff","no","I","v;b;n;m","legacy","I have read and understood the information shown above","legacy","legacy","red","0","neutral","uniform","1","1","1","NA","0","0","0","0","0","37","37","37","37","37","0","0","5","0","37","37","0","0","NA","0","37","0","37","NA","0","37","37","12/06/16 14:38:06","The main experiment item","yes","v","W:\Sussex\Consciousness and control\Exp 1 - stroop suggestion and PCE\Methods\Palfi_script","no","mono","no","18","no","black","no","Ok","NA","no","Male","768","legacy","C:/Users/User/Dropbox/Sussex/Consciousness and control/Exp 1 - stroop suggestion and PCE/Methods/Palfi_script/laptop_size/subject-1_IC.csv","legacy","Interactive Ising","3.0.2","0","v","v","space","NA","618","618","4145","NA","2","legacy","1024","2","48000","-16","experiment","1","odd","NA","336625","165870","218245","162160","340439","339867","340404","341060","342050","332480","NA","332480","151060","341297","339902","NA","2302","NA","NA","305572","2302","342500","NA","220994","339865","340439","Stroop IC","39","99402","42","yes","1366","KNIFE"
"32","93.023255814","yes","93.023255814","26","2330","2330","#ffffff","no","I","v;b;n;m","legacy","I have read and understood the information shown above","legacy","legacy","blue","0","inc","uniform","1","1","1","NA","0","0","0","0","0","38","38","38","38","38","0","0","5","0","38","38","0","0","NA","0","38","0","38","NA","0","38","38","12/06/16 14:38:06","The main experiment item","yes","b","W:\Sussex\Consciousness and control\Exp 1 - stroop suggestion and PCE\Methods\Palfi_script","no","mono","no","18","no","black","no","Ok","NA","no","Male","768","legacy","C:/Users/User/Dropbox/Sussex/Consciousness and control/Exp 1 - stroop suggestion and PCE/Methods/Palfi_script/laptop_size/subject-1_IC.csv","legacy","Interactive Ising","3.0.2","0","b","b","space","NA","791","791","4145","NA","2","legacy","1024","2","48000","-16","experiment","1","odd","NA","336625","165870","218245","162160","343250","342678","343215","344044","345034","332480","NA","332480","151060","344282","342713","NA","2302","NA","NA","305572","2302","345484","NA","220994","342676","343250","Stroop IC","40","100193","43","yes","1366","RED"
"120","93.1818181818","yes","93.1818181818","26","2293","2293","#ffffff","no","I","v;b;n;m","legacy","I have read and understood the information shown above","legacy","legacy","#ffef36","0","neutral","uniform","1","1","1","NA","0","0","0","0","0","39","39","39","39","39","0","0","5","0","39","39","0","0","NA","0","39","0","39","NA","0","39","39","12/06/16 14:38:06","The main experiment item","yes","m","W:\Sussex\Consciousness and control\Exp 1 - stroop suggestion and PCE\Methods\Palfi_script","no","mono","no","18","no","black","no","Ok","NA","no","Male","768","legacy","C:/Users/User/Dropbox/Sussex/Consciousness and control/Exp 1 - stroop suggestion and PCE/Methods/Palfi_script/laptop_size/subject-1_IC.csv","legacy","Interactive Ising","3.0.2","0","m","m","space","NA","715","715","4145","NA","2","legacy","1024","2","48000","-16","experiment","1","odd","NA","336625","165870","218245","162160","346190","345616","346155","346908","347898","332480","NA","332480","151060","347145","345651","NA","2302","NA","NA","305572","2302","348348","NA","220994","345614","346190","Stroop IC","41","100908","44","yes","1366","KNIFE"
"71","93.3333333333","yes","93.3333333333","26","2261","2261","#ffffff","no","I","v;b;n;m","legacy","I have read and understood the information shown above","legacy","legacy","green","0","inc","uniform","1","1","1","NA","0","0","0","0","0","40","40","40","40","40","0","0","5","0","40","40","0","0","NA","0","40","0","40","NA","0","40","40","12/06/16 14:38:06","The main experiment item","yes","n","W:\Sussex\Consciousness and control\Exp 1 - stroop suggestion and PCE\Methods\Palfi_script","no","mono","no","18","no","black","no","Ok","NA","no","Male","768","legacy","C:/Users/User/Dropbox/Sussex/Consciousness and control/Exp 1 - stroop suggestion and PCE/Methods/Palfi_script/laptop_size/subject-1_IC.csv","legacy","Interactive Ising","3.0.2","0","n","n","space","NA","861","861","4145","NA","2","legacy","1024","2","48000","-16","experiment","1","odd","NA","336625","165870","218245","162160","349069","348497","349034","349933","350924","332480","NA","332480","151060","350169","348532","NA","2302","NA","NA","305572","2302","351374","NA","220994","348495","349069","Stroop IC","42","101769","45","yes","1366","YELLOW"
"22","93.4782608696","yes","93.4782608696","26","2231","2231","#ffffff","no","I","v;b;n;m","legacy","I have read and understood the information shown above","legacy","legacy","red","0","inc","uniform","1","1","1","NA","0","0","0","0","0","41","41","41","41","41","0","0","5","0","41","41","0","0","NA","0","41","0","41","NA","0","41","41","12/06/16 14:38:06","The main experiment item","yes","v","W:\Sussex\Consciousness and control\Exp 1 - stroop suggestion and PCE\Methods\Palfi_script","no","mono","no","18","no","black","no","Ok","NA","no","Male","768","legacy","C:/Users/User/Dropbox/Sussex/Consciousness and control/Exp 1 - stroop suggestion and PCE/Methods/Palfi_script/laptop_size/subject-1_IC.csv","legacy","Interactive Ising","3.0.2","0","v","v","space","NA","870","870","4145","NA","2","legacy","1024","2","48000","-16","experiment","1","odd","NA","336625","165870","218245","162160","352130","351558","352095","353004","353994","332480","NA","332480","151060","353241","351593","NA","2302","NA","NA","305572","2302","354444","NA","220994","351555","352130","Stroop IC","43","102639","46","yes","1366","YELLOW"
"7","93.6170212766","yes","93.6170212766","26","2195","2195","#ffffff","no","I","v;b;n;m","legacy","I have read and understood the information shown above","legacy","legacy","red","0","inc","uniform","1","1","1","NA","0","0","0","0","0","42","42","42","42","42","0","0","5","0","42","42","0","0","NA","0","42","0","42","NA","0","42","42","12/06/16 14:38:06","The main experiment item","yes","v","W:\Sussex\Consciousness and control\Exp 1 - stroop suggestion and PCE\Methods\Palfi_script","no","mono","no","18","no","black","no","Ok","NA","no","Male","768","legacy","C:/Users/User/Dropbox/Sussex/Consciousness and control/Exp 1 - stroop suggestion and PCE/Methods/Palfi_script/laptop_size/subject-1_IC.csv","legacy","Interactive Ising","3.0.2","0","v","v","space","NA","550","550","4145","NA","2","legacy","1024","2","48000","-16","experiment","1","odd","NA","336625","165870","218245","162160","355199","354627","355164","355753","356741","332480","NA","332480","151060","355989","354662","NA","2302","NA","NA","305572","2302","357191","NA","220994","354624","355199","Stroop IC","44","103189","47","yes","1366","BLUE"
"30","93.75","yes","93.75","26","2163","2163","#ffffff","no","I","v;b;n;m","legacy","I have read and understood the information shown above","legacy","legacy","blue","0","inc","uniform","1","1","1","NA","0","0","0","0","0","43","43","43","43","43","0","0","5","0","43","43","0","0","NA","0","43","0","43","NA","0","43","43","12/06/16 14:38:06","The main experiment item","yes","b","W:\Sussex\Consciousness and control\Exp 1 - stroop suggestion and PCE\Methods\Palfi_script","no","mono","no","18","no","black","no","Ok","NA","no","Male","768","legacy","C:/Users/User/Dropbox/Sussex/Consciousness and control/Exp 1 - stroop suggestion and PCE/Methods/Palfi_script/laptop_size/subject-1_IC.csv","legacy","Interactive Ising","3.0.2","0","b","b","space","NA","659","659","4145","NA","2","legacy","1024","2","48000","-16","experiment","1","odd","NA","336625","165870","218245","162160","357945","357373","357910","358607","359597","332480","NA","332480","151060","358845","357408","NA","2302","NA","NA","305572","2302","360047","NA","220994","357371","357945","Stroop IC","45","103848","48","yes","1366","RED"
"93","91.8367346939","yes","91.8367346939","26","2133","2133","#ffffff","no","I","v;b;n;m","legacy","I have read and understood the information shown above","legacy","legacy","#ffef36","0","inc","uniform","0","0","1","NA","0","0","0","0","0","44","44","44","44","44","0","0","5","0","44","44","0","0","NA","0","44","0","44","NA","0","44","44","12/06/16 14:38:06","The main experiment item","yes","m","W:\Sussex\Consciousness and control\Exp 1 - stroop suggestion and PCE\Methods\Palfi_script","no","mono","no","18","no","black","no","Ok","NA","no","Male","768","legacy","C:/Users/User/Dropbox/Sussex/Consciousness and control/Exp 1 - stroop suggestion and PCE/Methods/Palfi_script/laptop_size/subject-1_IC.csv","legacy","Interactive Ising","3.0.2","0","n","n","space","NA","683","683","4145","NA","2","legacy","1024","2","48000","-16","experiment","1","odd","NA","336625","165870","218245","162160","360849","360277","360814","361537","362525","332480","NA","332480","151060","358845","360312","NA","2302","NA","NA","361773","2302","362975","NA","220994","360275","360849","Stroop IC","45","104531","49","yes","1366","GREEN"
"5","92","yes","92","26","2104","2104","#ffffff","no","I","v;b;n;m","legacy","I have read and understood the information shown above","legacy","legacy","red","0","inc","uniform","1","1","1","NA","0","0","0","0","0","45","45","45","45","45","0","0","5","0","45","45","0","0","NA","0","45","0","45","NA","0","45","45","12/06/16 14:38:06","The main experiment item","yes","v","W:\Sussex\Consciousness and control\Exp 1 - stroop suggestion and PCE\Methods\Palfi_script","no","mono","no","18","no","black","no","Ok","NA","no","Male","768","legacy","C:/Users/User/Dropbox/Sussex/Consciousness and control/Exp 1 - stroop suggestion and PCE/Methods/Palfi_script/laptop_size/subject-1_IC.csv","legacy","Interactive Ising","3.0.2","0","v","v","space","NA","705","705","4145","NA","2","legacy","1024","2","48000","-16","experiment","1","odd","NA","336625","165870","218245","162160","363671","363099","363636","364379","365367","332480","NA","332480","151060","364615","363134","NA","2302","NA","NA","361773","2302","365817","NA","220994","363097","363671","Stroop IC","46","105236","50","yes","1366","BLUE"
"95","92.1568627451","yes","92.1568627451","26","2077","2077","#ffffff","no","I","v;b;n;m","legacy","I have read and understood the information shown above","legacy","legacy","#ffef36","0","inc","uniform","1","1","1","NA","0","0","0","0","0","46","46","46","46","46","0","0","5","0","46","46","0","0","NA","0","46","0","46","NA","0","46","46","12/06/16 14:38:06","The main experiment item","yes","m","W:\Sussex\Consciousness and control\Exp 1 - stroop suggestion and PCE\Methods\Palfi_script","no","mono","no","18","no","black","no","Ok","NA","no","Male","768","legacy","C:/Users/User/Dropbox/Sussex/Consciousness and control/Exp 1 - stroop suggestion and PCE/Methods/Palfi_script/laptop_size/subject-1_IC.csv","legacy","Interactive Ising","3.0.2","0","m","m","space","NA","696","696","4145","NA","2","legacy","1024","2","48000","-16","experiment","1","odd","NA","336625","165870","218245","162160","366537","365965","366502","367236","368225","332480","NA","332480","151060","367473","366000","NA","2302","NA","NA","361773","2302","368675","NA","220994","365963","366537","Stroop IC","47","105932","51","yes","1366","GREEN"
"49","92.3076923077","yes","92.3076923077","26","2052","2052","#ffffff","no","I","v;b;n;m","legacy","I have read and understood the information shown above","legacy","legacy","green","0","inc","uniform","1","1","1","NA","0","0","0","0","0","47","47","47","47","47","0","0","5","0","47","47","0","0","NA","0","47","0","47","NA","0","47","47","12/06/16 14:38:06","The main experiment item","yes","n","W:\Sussex\Consciousness and control\Exp 1 - stroop suggestion and PCE\Methods\Palfi_script","no","mono","no","18","no","black","no","Ok","NA","no","Male","768","legacy","C:/Users/User/Dropbox/Sussex/Consciousness and control/Exp 1 - stroop suggestion and PCE/Methods/Palfi_script/laptop_size/subject-1_IC.csv","legacy","Interactive Ising","3.0.2","0","n","n","space","NA","775","775","4145","NA","2","legacy","1024","2","48000","-16","experiment","1","odd","NA","336625","165870","218245","162160","369470","368898","369435","370248","371238","332480","NA","332480","151060","370486","368933","NA","2302","NA","NA","361773","2302","371688","NA","220994","368895","369470","Stroop IC","48","106707","52","yes","1366","RED"
"73","92.4528301887","yes","92.4528301887","26","2030","2030","#ffffff","no","I","v;b;n;m","legacy","I have read and understood the information shown above","legacy","legacy","#ffef36","0","inc","uniform","1","1","1","NA","0","0","0","0","0","48","48","48","48","48","0","0","5","0","48","48","0","0","NA","0","48","0","48","NA","0","48","48","12/06/16 14:38:06","The main experiment item","yes","m","W:\Sussex\Consciousness and control\Exp 1 - stroop suggestion and PCE\Methods\Palfi_script","no","mono","no","18","no","black","no","Ok","NA","no","Male","768","legacy","C:/Users/User/Dropbox/Sussex/Consciousness and control/Exp 1 - stroop suggestion and PCE/Methods/Palfi_script/laptop_size/subject-1_IC.csv","legacy","Interactive Ising","3.0.2","0","m","m","space","NA","896","896","4145","NA","2","legacy","1024","2","48000","-16","experiment","1","odd","NA","336625","165870","218245","162160","372401","371829","372366","373305","374293","332480","NA","332480","151060","373541","371864","NA","2302","NA","NA","361773","2302","374743","NA","220994","371826","372401","Stroop IC","49","107603","53","yes","1366","RED"
"16","92.5925925926","yes","92.5925925926","26","2004","2004","#ffffff","no","I","v;b;n;m","legacy","I have read and understood the information shown above","legacy","legacy","red","0","inc","uniform","1","1","1","NA","0","0","0","0","0","49","49","49","49","49","0","0","5","0","49","49","0","0","NA","0","49","0","49","NA","0","49","49","12/06/16 14:38:06","The main experiment item","yes","v","W:\Sussex\Consciousness and control\Exp 1 - stroop suggestion and PCE\Methods\Palfi_script","no","mono","no","18","no","black","no","Ok","NA","no","Male","768","legacy","C:/Users/User/Dropbox/Sussex/Consciousness and control/Exp 1 - stroop suggestion and PCE/Methods/Palfi_script/laptop_size/subject-1_IC.csv","legacy","Interactive Ising","3.0.2","0","v","v","space","NA","635","635","4145","NA","2","legacy","1024","2","48000","-16","experiment","1","odd","NA","336625","165870","218245","162160","375466","374894","375431","376104","377092","332480","NA","332480","151060","376340","374929","NA","2302","NA","NA","361773","2302","377542","NA","220994","374891","375466","Stroop IC","50","108238","54","yes","1366","GREEN"
"106","92.7272727273","yes","92.7272727273","26","1983","1983","#ffffff","no","I","v;b;n;m","legacy","I have read and understood the information shown above","legacy","legacy","#ffef36","0","con","uniform","1","1","1","NA","0","0","0","0","0","50","50","50","50","50","0","0","5","0","50","50","0","0","NA","0","50","0","50","NA","0","50","50","12/06/16 14:38:06","The main experiment item","yes","m","W:\Sussex\Consciousness and control\Exp 1 - stroop suggestion and PCE\Methods\Palfi_script","no","mono","no","18","no","black","no","Ok","NA","no","Male","768","legacy","C:/Users/User/Dropbox/Sussex/Consciousness and control/Exp 1 - stroop suggestion and PCE/Methods/Palfi_script/laptop_size/subject-1_IC.csv","legacy","Interactive Ising","3.0.2","0","m","m","space","NA","871","871","4145","NA","2","legacy","1024","2","48000","-16","experiment","1","odd","NA","336625","165870","218245","162160","378250","377678","378215","379125","380113","332480","NA","332480","151060","379361","377713","NA","2302","NA","NA","361773","2302","380563","NA","220994","377675","378250","Stroop IC","51","109109","55","yes","1366","YELLOW"
"19","92.8571428571","yes","92.8571428571","26","1962","1962","#ffffff","no","I","v;b;n;m","legacy","I have read and understood the information shown above","legacy","legacy","red","0","inc","uniform","1","1","1","NA","0","0","0","0","0","51","51","51","51","51","0","0","5","0","51","51","0","0","NA","0","51","0","51","NA","0","51","51","12/06/16 14:38:06","The main experiment item","yes","v","W:\Sussex\Consciousness and control\Exp 1 - stroop suggestion and PCE\Methods\Palfi_script","no","mono","no","18","no","black","no","Ok","NA","no","Male","768","legacy","C:/Users/User/Dropbox/Sussex/Consciousness and control/Exp 1 - stroop suggestion and PCE/Methods/Palfi_script/laptop_size/subject-1_IC.csv","legacy","Interactive Ising","3.0.2","0","v","v","space","NA","773","773","4145","NA","2","legacy","1024","2","48000","-16","experiment","1","odd","NA","336625","165870","218245","162160","381259","380687","381224","382035","383024","332480","NA","332480","151060","382272","380722","NA","2302","NA","NA","361773","2302","383474","NA","220994","380685","381259","Stroop IC","52","109882","56","yes","1366","YELLOW"
"33","92.9824561404","yes","92.9824561404","26","1941","1941","#ffffff","no","I","v;b;n;m","legacy","I have read and understood the information shown above","legacy","legacy","blue","0","inc","uniform","1","1","1","NA","0","0","0","0","0","52","52","52","52","52","0","0","5","0","52","52","0","0","NA","0","52","0","52","NA","0","52","52","12/06/16 14:38:06","The main experiment item","yes","b","W:\Sussex\Consciousness and control\Exp 1 - stroop suggestion and PCE\Methods\Palfi_script","no","mono","no","18","no","black","no","Ok","NA","no","Male","768","legacy","C:/Users/User/Dropbox/Sussex/Consciousness and control/Exp 1 - stroop suggestion and PCE/Methods/Palfi_script/laptop_size/subject-1_IC.csv","legacy","Interactive Ising","3.0.2","0","b","b","space","NA","775","775","4145","NA","2","legacy","1024","2","48000","-16","experiment","1","odd","NA","336625","165870","218245","162160","384237","383665","384202","385014","386004","332480","NA","332480","151060","385251","383700","NA","2302","NA","NA","361773","2302","386454","NA","220994","383662","384237","Stroop IC","53","110657","57","yes","1366","GREEN"
"4","93.1034482759","yes","93.1034482759","26","1917","1917","#ffffff","no","I","v;b;n;m","legacy","I have read and understood the information shown above","legacy","legacy","red","0","inc","uniform","1","1","1","NA","0","0","0","0","0","53","53","53","53","53","0","0","5","0","53","53","0","0","NA","0","53","0","53","NA","0","53","53","12/06/16 14:38:06","The main experiment item","yes","v","W:\Sussex\Consciousness and control\Exp 1 - stroop suggestion and PCE\Methods\Palfi_script","no","mono","no","18","no","black","no","Ok","NA","no","Male","768","legacy","C:/Users/User/Dropbox/Sussex/Consciousness and control/Exp 1 - stroop suggestion and PCE/Methods/Palfi_script/laptop_size/subject-1_IC.csv","legacy","Interactive Ising","3.0.2","0","v","v","space","NA","570","570","4145","NA","2","legacy","1024","2","48000","-16","experiment","1","odd","NA","336625","165870","218245","162160","387262","386690","387227","387835","388824","332480","NA","332480","151060","388071","386725","NA","2302","NA","NA","361773","2302","389274","NA","220994","386687","387262","Stroop IC","54","111227","58","yes","1366","BLUE"
"91","93.2203389831","yes","93.2203389831","26","1896","1896","#ffffff","no","I","v;b;n;m","legacy","I have read and understood the information shown above","legacy","legacy","#ffef36","0","inc","uniform","1","1","1","NA","0","0","0","0","0","54","54","54","54","54","0","0","5","0","54","54","0","0","NA","0","54","0","54","NA","0","54","54","12/06/16 14:38:06","The main experiment item","yes","m","W:\Sussex\Consciousness and control\Exp 1 - stroop suggestion and PCE\Methods\Palfi_script","no","mono","no","18","no","black","no","Ok","NA","no","Male","768","legacy","C:/Users/User/Dropbox/Sussex/Consciousness and control/Exp 1 - stroop suggestion and PCE/Methods/Palfi_script/laptop_size/subject-1_IC.csv","legacy","Interactive Ising","3.0.2","0","m","m","space","NA","695","695","4145","NA","2","legacy","1024","2","48000","-16","experiment","1","odd","NA","336625","165870","218245","162160","389987","389415","389952","390685","391673","332480","NA","332480","151060","390921","389450","NA","2302","NA","NA","361773","2302","392123","NA","220994","389412","389987","Stroop IC","55","111922","59","yes","1366","GREEN"
"15","93.3333333333","yes","93.3333333333","26","1875","1875","#ffffff","no","I","v;b;n;m","legacy","I have read and understood the information shown above","legacy","legacy","red","0","inc","uniform","1","1","1","NA","0","0","0","0","0","55","55","55","55","55","0","0","5","0","55","55","0","0","NA","0","55","0","55","NA","0","55","55","12/06/16 14:38:06","The main experiment item","yes","v","W:\Sussex\Consciousness and control\Exp 1 - stroop suggestion and PCE\Methods\Palfi_script","no","mono","no","18","no","black","no","Ok","NA","no","Male","768","legacy","C:/Users/User/Dropbox/Sussex/Consciousness and control/Exp 1 - stroop suggestion and PCE/Methods/Palfi_script/laptop_size/subject-1_IC.csv","legacy","Interactive Ising","3.0.2","0","v","v","space","NA","607","607","4145","NA","2","legacy","1024","2","48000","-16","experiment","1","odd","NA","336625","165870","218245","162160","392824","392248","392786","393434","394424","332480","NA","332480","151060","393671","392284","NA","2302","NA","NA","361773","2302","394874","NA","220994","392246","392824","Stroop IC","56","112529","60","yes","1366","GREEN"
"29","93.4426229508","yes","93.4426229508","26","1856","1856","#ffffff","no","I","v;b;n;m","legacy","I have read and understood the information shown above","legacy","legacy","blue","0","inc","uniform","1","1","1","NA","0","0","0","0","0","56","56","56","56","56","0","0","5","0","56","56","0","0","NA","0","56","0","56","NA","0","56","56","12/06/16 14:38:06","The main experiment item","yes","b","W:\Sussex\Consciousness and control\Exp 1 - stroop suggestion and PCE\Methods\Palfi_script","no","mono","no","18","no","black","no","Ok","NA","no","Male","768","legacy","C:/Users/User/Dropbox/Sussex/Consciousness and control/Exp 1 - stroop suggestion and PCE/Methods/Palfi_script/laptop_size/subject-1_IC.csv","legacy","Interactive Ising","3.0.2","0","b","b","space","NA","718","718","4145","NA","2","legacy","1024","2","48000","-16","experiment","1","odd","NA","336625","165870","218245","162160","395592","395020","395557","396312","397301","332480","NA","332480","151060","396549","395055","NA","2302","NA","NA","361773","2302","397752","NA","220994","395017","395592","Stroop IC","57","113247","61","yes","1366","RED"
"68","93.5483870968","yes","93.5483870968","26","1845","1845","#ffffff","no","I","v;b;n;m","legacy","I have read and understood the information shown above","legacy","legacy","green","0","inc","uniform","1","1","1","NA","0","0","0","0","0","57","57","57","57","57","0","0","5","0","57","57","0","0","NA","0","57","0","57","NA","0","57","57","12/06/16 14:38:06","The main experiment item","yes","n","W:\Sussex\Consciousness and control\Exp 1 - stroop suggestion and PCE\Methods\Palfi_script","no","mono","no","18","no","black","no","Ok","NA","no","Male","768","legacy","C:/Users/User/Dropbox/Sussex/Consciousness and control/Exp 1 - stroop suggestion and PCE/Methods/Palfi_script/laptop_size/subject-1_IC.csv","legacy","Interactive Ising","3.0.2","0","n","n","space","NA","1170","1170","4145","NA","2","legacy","1024","2","48000","-16","experiment","1","odd","NA","336625","165870","218245","162160","398494","397922","398459","399668","400656","332480","NA","332480","151060","399904","397957","NA","2302","NA","NA","361773","2302","401106","NA","220994","397919","398494","Stroop IC","58","114417","62","yes","1366","YELLOW"
"74","93.6507936508","yes","93.6507936508","26","1827","1827","#ffffff","no","I","v;b;n;m","legacy","I have read and understood the information shown above","legacy","legacy","#ffef36","0","inc","uniform","1","1","1","NA","0","0","0","0","0","58","58","58","58","58","0","0","5","0","58","58","0","0","NA","0","58","0","58","NA","0","58","58","12/06/16 14:38:06","The main experiment item","yes","m","W:\Sussex\Consciousness and control\Exp 1 - stroop suggestion and PCE\Methods\Palfi_script","no","mono","no","18","no","black","no","Ok","NA","no","Male","768","legacy","C:/Users/User/Dropbox/Sussex/Consciousness and control/Exp 1 - stroop suggestion and PCE/Methods/Palfi_script/laptop_size/subject-1_IC.csv","legacy","Interactive Ising","3.0.2","0","m","m","space","NA","735","735","4145","NA","2","legacy","1024","2","48000","-16","experiment","1","odd","NA","336625","165870","218245","162160","401825","401253","401790","402563","403551","332480","NA","332480","151060","402799","401288","NA","2302","NA","NA","361773","2302","404001","NA","220994","401250","401825","Stroop IC","59","115152","63","yes","1366","RED"
"20","93.75","yes","93.75","26","1804","1804","#ffffff","no","I","v;b;n;m","legacy","I have read and understood the information shown above","legacy","legacy","red","0","inc","uniform","1","1","1","NA","0","0","0","0","0","59","59","59","59","59","0","0","5","0","59","59","0","0","NA","0","59","0","59","NA","0","59","59","12/06/16 14:38:06","The main experiment item","yes","v","W:\Sussex\Consciousness and control\Exp 1 - stroop suggestion and PCE\Methods\Palfi_script","no","mono","no","18","no","black","no","Ok","NA","no","Male","768","legacy","C:/Users/User/Dropbox/Sussex/Consciousness and control/Exp 1 - stroop suggestion and PCE/Methods/Palfi_script/laptop_size/subject-1_IC.csv","legacy","Interactive Ising","3.0.2","0","v","v","space","NA","350","350","4145","NA","2","legacy","1024","2","48000","-16","experiment","1","odd","NA","336625","165870","218245","162160","404720","404148","404685","405073","406063","332480","NA","332480","151060","405311","404183","NA","2302","NA","NA","361773","2302","406513","NA","220994","404146","404720","Stroop IC","60","115502","64","yes","1366","YELLOW"
"25","93.8461538462","yes","93.8461538462","26","1786","1786","#ffffff","no","I","v;b;n;m","legacy","I have read and understood the information shown above","legacy","legacy","blue","0","inc","uniform","1","1","1","NA","0","0","0","0","0","60","60","60","60","60","0","0","5","0","60","60","0","0","NA","0","60","0","60","NA","0","60","60","12/06/16 14:38:06","The main experiment item","yes","b","W:\Sussex\Consciousness and control\Exp 1 - stroop suggestion and PCE\Methods\Palfi_script","no","mono","no","18","no","black","no","Ok","NA","no","Male","768","legacy","C:/Users/User/Dropbox/Sussex/Consciousness and control/Exp 1 - stroop suggestion and PCE/Methods/Palfi_script/laptop_size/subject-1_IC.csv","legacy","Interactive Ising","3.0.2","0","b","b","space","NA","642","642","4145","NA","2","legacy","1024","2","48000","-16","experiment","1","odd","NA","336625","165870","218245","162160","407270","406698","407235","407915","408905","332480","NA","332480","151060","408153","406733","NA","2302","NA","NA","361773","2302","409355","NA","220994","406696","407270","Stroop IC","61","116144","65","yes","1366","RED"
"107","93.9393939394","yes","93.9393939394","26","1771","1771","#ffffff","no","I","v;b;n;m","legacy","I have read and understood the information shown above","legacy","legacy","#ffef36","0","con","uniform","1","1","1","NA","0","0","0","0","0","61","61","61","61","61","0","0","5","0","61","61","0","0","NA","0","61","0","61","NA","0","61","61","12/06/16 14:38:06","The main experiment item","yes","m","W:\Sussex\Consciousness and control\Exp 1 - stroop suggestion and PCE\Methods\Palfi_script","no","mono","no","18","no","black","no","Ok","NA","no","Male","768","legacy","C:/Users/User/Dropbox/Sussex/Consciousness and control/Exp 1 - stroop suggestion and PCE/Methods/Palfi_script/laptop_size/subject-1_IC.csv","legacy","Interactive Ising","3.0.2","0","m","m","space","NA","786","786","4145","NA","2","legacy","1024","2","48000","-16","experiment","1","odd","NA","336625","165870","218245","162160","410103","409530","410068","410892","411880","332480","NA","332480","151060","411128","409566","NA","2302","NA","NA","361773","2302","412330","NA","220994","409528","410103","Stroop IC","62","116930","66","yes","1366","YELLOW"
"75","94.0298507463","yes","94.0298507463","26","1754","1754","#ffffff","no","I","v;b;n;m","legacy","I have read and understood the information shown above","legacy","legacy","#ffef36","0","inc","uniform","1","1","1","NA","0","0","0","0","0","62","62","62","62","62","0","0","5","0","62","62","0","0","NA","0","62","0","62","NA","0","62","62","12/06/16 14:38:06","The main experiment item","yes","m","W:\Sussex\Consciousness and control\Exp 1 - stroop suggestion and PCE\Methods\Palfi_script","no","mono","no","18","no","black","no","Ok","NA","no","Male","768","legacy","C:/Users/User/Dropbox/Sussex/Consciousness and control/Exp 1 - stroop suggestion and PCE/Methods/Palfi_script/laptop_size/subject-1_IC.csv","legacy","Interactive Ising","3.0.2","0","m","m","space","NA","640","640","4145","NA","2","legacy","1024","2","48000","-16","experiment","1","odd","NA","336625","165870","218245","162160","413032","412460","412997","413675","414665","332480","NA","332480","151060","413913","412495","NA","2302","NA","NA","361773","2302","415115","NA","220994","412458","413032","Stroop IC","63","117570","67","yes","1366","RED"
"44","94.1176470588","yes","94.1176470588","26","1741","1741","#ffffff","no","I","v;b;n;m","legacy","I have read and understood the information shown above","legacy","legacy","blue","0","inc","uniform","1","1","1","NA","0","0","0","0","0","63","63","63","63","63","0","0","5","0","63","63","0","0","NA","0","63","0","63","NA","0","63","63","12/06/16 14:38:06","The main experiment item","yes","b","W:\Sussex\Consciousness and control\Exp 1 - stroop suggestion and PCE\Methods\Palfi_script","no","mono","no","18","no","black","no","Ok","NA","no","Male","768","legacy","C:/Users/User/Dropbox/Sussex/Consciousness and control/Exp 1 - stroop suggestion and PCE/Methods/Palfi_script/laptop_size/subject-1_IC.csv","legacy","Interactive Ising","3.0.2","0","b","b","space","NA","881","881","4145","NA","2","legacy","1024","2","48000","-16","experiment","1","odd","NA","336625","165870","218245","162160","415849","415277","415814","416733","417722","332480","NA","332480","151060","416969","415312","NA","2302","NA","NA","361773","2302","418172","NA","220994","415274","415849","Stroop IC","64","118451","68","yes","1366","YELLOW"
"72","92.7536231884","yes","92.7536231884","26","1730","1730","#ffffff","no","I","v;b;n;m","legacy","I have read and understood the information shown above","legacy","legacy","green","0","inc","uniform","0","0","1","NA","0","0","0","0","0","64","64","64","64","64","0","0","5","0","64","64","0","0","NA","0","64","0","64","NA","0","64","64","12/06/16 14:38:06","The main experiment item","yes","n","W:\Sussex\Consciousness and control\Exp 1 - stroop suggestion and PCE\Methods\Palfi_script","no","mono","no","18","no","black","no","Ok","NA","no","Male","768","legacy","C:/Users/User/Dropbox/Sussex/Consciousness and control/Exp 1 - stroop suggestion and PCE/Methods/Palfi_script/laptop_size/subject-1_IC.csv","legacy","Interactive Ising","3.0.2","0","m","m","space","NA","987","987","4145","NA","2","legacy","1024","2","48000","-16","experiment","1","odd","NA","336625","165870","218245","162160","418971","418398","418936","419961","420950","332480","NA","332480","151060","416969","418434","NA","2302","NA","NA","420198","2302","421400","NA","220994","418396","418971","Stroop IC","64","119438","69","yes","1366","YELLOW"
"81","92.8571428571","yes","92.8571428571","26","1718","1718","#ffffff","no","I","v;b;n;m","legacy","I have read and understood the information shown above","legacy","legacy","#ffef36","0","inc","uniform","1","1","1","NA","0","0","0","0","0","65","65","65","65","65","0","0","5","0","65","65","0","0","NA","0","65","0","65","NA","0","65","65","12/06/16 14:38:06","The main experiment item","yes","m","W:\Sussex\Consciousness and control\Exp 1 - stroop suggestion and PCE\Methods\Palfi_script","no","mono","no","18","no","black","no","Ok","NA","no","Male","768","legacy","C:/Users/User/Dropbox/Sussex/Consciousness and control/Exp 1 - stroop suggestion and PCE/Methods/Palfi_script/laptop_size/subject-1_IC.csv","legacy","Interactive Ising","3.0.2","0","m","m","space","NA","879","879","4145","NA","2","legacy","1024","2","48000","-16","experiment","1","odd","NA","336625","165870","218245","162160","422129","421557","422094","423011","423999","332480","NA","332480","151060","423247","421592","NA","2302","NA","NA","420198","2302","424449","NA","220994","421555","422129","Stroop IC","65","120317","70","yes","1366","BLUE"
"42","92.9577464789","yes","92.9577464789","26","1706","1706","#ffffff","no","I","v;b;n;m","legacy","I have read and understood the information shown above","legacy","legacy","blue","0","inc","uniform","1","1","1","NA","0","0","0","0","0","66","66","66","66","66","0","0","5","0","66","66","0","0","NA","0","66","0","66","NA","0","66","66","12/06/16 14:38:06","The main experiment item","yes","b","W:\Sussex\Consciousness and control\Exp 1 - stroop suggestion and PCE\Methods\Palfi_script","no","mono","no","18","no","black","no","Ok","NA","no","Male","768","legacy","C:/Users/User/Dropbox/Sussex/Consciousness and control/Exp 1 - stroop suggestion and PCE/Methods/Palfi_script/laptop_size/subject-1_IC.csv","legacy","Interactive Ising","3.0.2","0","b","b","space","NA","825","825","4145","NA","2","legacy","1024","2","48000","-16","experiment","1","odd","NA","336625","165870","218245","162160","425172","424600","425137","426000","426991","332480","NA","332480","151060","426239","424635","NA","2302","NA","NA","420198","2302","427441","NA","220994","424597","425172","Stroop IC","66","121142","71","yes","1366","YELLOW"
"102","93.0555555556","yes","93.0555555556","26","1692","1692","#ffffff","no","I","v;b;n;m","legacy","I have read and understood the information shown above","legacy","legacy","blue","0","con","uniform","1","1","1","NA","0","0","0","0","0","67","67","67","67","67","0","0","5","0","67","67","0","0","NA","0","67","0","67","NA","0","67","67","12/06/16 14:38:06","The main experiment item","yes","b","W:\Sussex\Consciousness and control\Exp 1 - stroop suggestion and PCE\Methods\Palfi_script","no","mono","no","18","no","black","no","Ok","NA","no","Male","768","legacy","C:/Users/User/Dropbox/Sussex/Consciousness and control/Exp 1 - stroop suggestion and PCE/Methods/Palfi_script/laptop_size/subject-1_IC.csv","legacy","Interactive Ising","3.0.2","0","b","b","space","NA","689","689","4145","NA","2","legacy","1024","2","48000","-16","experiment","1","odd","NA","336625","165870","218245","162160","428246","427674","428211","428938","429926","332480","NA","332480","151060","429174","427709","NA","2302","NA","NA","420198","2302","430376","NA","220994","427671","428246","Stroop IC","67","121831","72","yes","1366","BLUE"
"70","93.1506849315","yes","93.1506849315","26","1686","1686","#ffffff","no","I","v;b;n;m","legacy","I have read and understood the information shown above","legacy","legacy","green","0","inc","uniform","1","1","1","NA","0","0","0","0","0","68","68","68","68","68","0","0","5","0","68","68","0","0","NA","0","68","0","68","NA","0","68","68","12/06/16 14:38:06","The main experiment item","yes","n","W:\Sussex\Consciousness and control\Exp 1 - stroop suggestion and PCE\Methods\Palfi_script","no","mono","no","18","no","black","no","Ok","NA","no","Male","768","legacy","C:/Users/User/Dropbox/Sussex/Consciousness and control/Exp 1 - stroop suggestion and PCE/Methods/Palfi_script/laptop_size/subject-1_IC.csv","legacy","Interactive Ising","3.0.2","0","n","n","space","NA","1315","1315","4145","NA","2","legacy","1024","2","48000","-16","experiment","1","odd","NA","336625","165870","218245","162160","431120","430548","431085","432437","433428","332480","NA","332480","151060","432674","430583","NA","2302","NA","NA","420198","2302","433878","NA","220994","430545","431120","Stroop IC","68","123146","73","yes","1366","YELLOW"
"115","93.2432432432","yes","93.2432432432","26","1672","1672","#ffffff","no","I","v;b;n;m","legacy","I have read and understood the information shown above","legacy","legacy","green","0","neutral","uniform","1","1","1","NA","0","0","0","0","0","69","69","69","69","69","0","0","5","0","69","69","0","0","NA","0","69","0","69","NA","0","69","69","12/06/16 14:38:06","The main experiment item","yes","n","W:\Sussex\Consciousness and control\Exp 1 - stroop suggestion and PCE\Methods\Palfi_script","no","mono","no","18","no","black","no","Ok","NA","no","Male","768","legacy","C:/Users/User/Dropbox/Sussex/Consciousness and control/Exp 1 - stroop suggestion and PCE/Methods/Palfi_script/laptop_size/subject-1_IC.csv","legacy","Interactive Ising","3.0.2","0","n","n","space","NA","640","640","4145","NA","2","legacy","1024","2","48000","-16","experiment","1","odd","NA","336625","165870","218245","162160","434623","434051","434588","435265","436254","332480","NA","332480","151060","435502","434086","NA","2302","NA","NA","420198","2302","436704","NA","220994","434049","434623","Stroop IC","69","123786","74","yes","1366","LOT"
"77","93.3333333333","yes","93.3333333333","26","1662","1662","#ffffff","no","I","v;b;n;m","legacy","I have read and understood the information shown above","legacy","legacy","#ffef36","0","inc","uniform","1","1","1","NA","0","0","0","0","0","70","70","70","70","70","0","0","5","0","70","70","0","0","NA","0","70","0","70","NA","0","70","70","12/06/16 14:38:06","The main experiment item","yes","m","W:\Sussex\Consciousness and control\Exp 1 - stroop suggestion and PCE\Methods\Palfi_script","no","mono","no","18","no","black","no","Ok","NA","no","Male","768","legacy","C:/Users/User/Dropbox/Sussex/Consciousness and control/Exp 1 - stroop suggestion and PCE/Methods/Palfi_script/laptop_size/subject-1_IC.csv","legacy","Interactive Ising","3.0.2","0","m","m","space","NA","903","903","4145","NA","2","legacy","1024","2","48000","-16","experiment","1","odd","NA","336625","165870","218245","162160","437435","436863","437400","438340","439330","332480","NA","332480","151060","438578","436898","NA","2302","NA","NA","420198","2302","439780","NA","220994","436861","437435","Stroop IC","70","124689","75","yes","1366","RED"
"90","93.4210526316","yes","93.4210526316","26","1657","1657","#ffffff","no","I","v;b;n;m","legacy","I have read and understood the information shown above","legacy","legacy","#ffef36","0","inc","uniform","1","1","1","NA","0","0","0","0","0","71","71","71","71","71","0","0","5","0","71","71","0","0","NA","0","71","0","71","NA","0","71","71","12/06/16 14:38:06","The main experiment item","yes","m","W:\Sussex\Consciousness and control\Exp 1 - stroop suggestion and PCE\Methods\Palfi_script","no","mono","no","18","no","black","no","Ok","NA","no","Male","768","legacy","C:/Users/User/Dropbox/Sussex/Consciousness and control/Exp 1 - stroop suggestion and PCE/Methods/Palfi_script/laptop_size/subject-1_IC.csv","legacy","Interactive Ising","3.0.2","0","m","m","space","NA","1250","1250","4145","NA","2","legacy","1024","2","48000","-16","experiment","1","odd","NA","336625","165870","218245","162160","440499","439926","440464","441751","442741","332480","NA","332480","151060","441988","439962","NA","2302","NA","NA","420198","2302","443192","NA","220994","439924","440499","Stroop IC","71","125939","76","yes","1366","GREEN"
"111","93.5064935065","yes","93.5064935065","26","1643","1643","#ffffff","no","I","v;b;n;m","legacy","I have read and understood the information shown above","legacy","legacy","red","0","neutral","uniform","1","1","1","NA","0","0","0","0","0","72","72","72","72","72","0","0","5","0","72","72","0","0","NA","0","72","0","72","NA","0","72","72","12/06/16 14:38:06","The main experiment item","yes","v","W:\Sussex\Consciousness and control\Exp 1 - stroop suggestion and PCE\Methods\Palfi_script","no","mono","no","18","no","black","no","Ok","NA","no","Male","768","legacy","C:/Users/User/Dropbox/Sussex/Consciousness and control/Exp 1 - stroop suggestion and PCE/Methods/Palfi_script/laptop_size/subject-1_IC.csv","legacy","Interactive Ising","3.0.2","0","v","v","space","NA","638","638","4145","NA","2","legacy","1024","2","48000","-16","experiment","1","odd","NA","336625","165870","218245","162160","443943","443371","443908","444584","445574","332480","NA","332480","151060","444822","443406","NA","2302","NA","NA","420198","2302","446024","NA","220994","443369","443943","Stroop IC","72","126577","77","yes","1366","FLOWER"
"112","93.5897435897","yes","93.5897435897","26","1633","1633","#ffffff","no","I","v;b;n;m","legacy","I have read and understood the information shown above","legacy","legacy","blue","0","neutral","uniform","1","1","1","NA","0","0","0","0","0","73","73","73","73","73","0","0","5","0","73","73","0","0","NA","0","73","0","73","NA","0","73","73","12/06/16 14:38:06","The main experiment item","yes","b","W:\Sussex\Consciousness and control\Exp 1 - stroop suggestion and PCE\Methods\Palfi_script","no","mono","no","18","no","black","no","Ok","NA","no","Male","768","legacy","C:/Users/User/Dropbox/Sussex/Consciousness and control/Exp 1 - stroop suggestion and PCE/Methods/Palfi_script/laptop_size/subject-1_IC.csv","legacy","Interactive Ising","3.0.2","0","b","b","space","NA","873","873","4145","NA","2","legacy","1024","2","48000","-16","experiment","1","odd","NA","336625","165870","218245","162160","446753","446181","446718","447628","448618","332480","NA","332480","151060","447865","446216","NA","2302","NA","NA","420198","2302","449068","NA","220994","446178","446753","Stroop IC","73","127450","78","yes","1366","LOT"
"88","93.6708860759","yes","93.6708860759","26","1623","1623","#ffffff","no","I","v;b;n;m","legacy","I have read and understood the information shown above","legacy","legacy","#ffef36","0","inc","uniform","1","1","1","NA","0","0","0","0","0","74","74","74","74","74","0","0","5","0","74","74","0","0","NA","0","74","0","74","NA","0","74","74","12/06/16 14:38:06","The main experiment item","yes","m","W:\Sussex\Consciousness and control\Exp 1 - stroop suggestion and PCE\Methods\Palfi_script","no","mono","no","18","no","black","no","Ok","NA","no","Male","768","legacy","C:/Users/User/Dropbox/Sussex/Consciousness and control/Exp 1 - stroop suggestion and PCE/Methods/Palfi_script/laptop_size/subject-1_IC.csv","legacy","Interactive Ising","3.0.2","0","m","m","space","NA","787","787","4145","NA","2","legacy","1024","2","48000","-16","experiment","1","odd","NA","336625","165870","218245","162160","449806","449234","449771","450596","451587","332480","NA","332480","151060","450833","449269","NA","2302","NA","NA","420198","2302","452037","NA","220994","449232","449806","Stroop IC","74","128237","79","yes","1366","BLUE"
"87","93.75","yes","93.75","26","1612","1612","#ffffff","no","I","v;b;n;m","legacy","I have read and understood the information shown above","legacy","legacy","#ffef36","0","inc","uniform","1","1","1","NA","0","0","0","0","0","75","75","75","75","75","0","0","5","0","75","75","0","0","NA","0","75","0","75","NA","0","75","75","12/06/16 14:38:06","The main experiment item","yes","m","W:\Sussex\Consciousness and control\Exp 1 - stroop suggestion and PCE\Methods\Palfi_script","no","mono","no","18","no","black","no","Ok","NA","no","Male","768","legacy","C:/Users/User/Dropbox/Sussex/Consciousness and control/Exp 1 - stroop suggestion and PCE/Methods/Palfi_script/laptop_size/subject-1_IC.csv","legacy","Interactive Ising","3.0.2","0","m","m","space","NA","794","794","4145","NA","2","legacy","1024","2","48000","-16","experiment","1","odd","NA","336625","165870","218245","162160","452742","452170","452707","453539","454529","332480","NA","332480","151060","453775","452205","NA","2302","NA","NA","420198","2302","454979","NA","220994","452168","452742","Stroop IC","75","129031","80","yes","1366","BLUE"
"66","93.8271604938","yes","93.8271604938","26","1604","1604","#ffffff","no","I","v;b;n;m","legacy","I have read and understood the information shown above","legacy","legacy","green","0","inc","uniform","1","1","1","NA","0","0","0","0","0","76","76","76","76","76","0","0","5","0","76","76","0","0","NA","0","76","0","76","NA","0","76","76","12/06/16 14:38:06","The main experiment item","yes","n","W:\Sussex\Consciousness and control\Exp 1 - stroop suggestion and PCE\Methods\Palfi_script","no","mono","no","18","no","black","no","Ok","NA","no","Male","768","legacy","C:/Users/User/Dropbox/Sussex/Consciousness and control/Exp 1 - stroop suggestion and PCE/Methods/Palfi_script/laptop_size/subject-1_IC.csv","legacy","Interactive Ising","3.0.2","0","n","n","space","NA","961","961","4145","NA","2","legacy","1024","2","48000","-16","experiment","1","odd","NA","336625","165870","218245","162160","455719","455147","455684","456683","457671","332480","NA","332480","151060","456919","455182","NA","2302","NA","NA","420198","2302","458121","NA","220994","455145","455719","Stroop IC","76","129992","81","yes","1366","YELLOW"
"39","93.9024390244","yes","93.9024390244","26","1594","1594","#ffffff","no","I","v;b;n;m","legacy","I have read and understood the information shown above","legacy","legacy","blue","0","inc","uniform","1","1","1","NA","0","0","0","0","0","77","77","77","77","77","0","0","5","0","77","77","0","0","NA","0","77","0","77","NA","0","77","77","12/06/16 14:38:06","The main experiment item","yes","b","W:\Sussex\Consciousness and control\Exp 1 - stroop suggestion and PCE\Methods\Palfi_script","no","mono","no","18","no","black","no","Ok","NA","no","Male","768","legacy","C:/Users/User/Dropbox/Sussex/Consciousness and control/Exp 1 - stroop suggestion and PCE/Methods/Palfi_script/laptop_size/subject-1_IC.csv","legacy","Interactive Ising","3.0.2","0","b","b","space","NA","730","730","4145","NA","2","legacy","1024","2","48000","-16","experiment","1","odd","NA","336625","165870","218245","162160","458837","458264","458802","459570","460558","332480","NA","332480","151060","459806","458300","NA","2302","NA","NA","420198","2302","461008","NA","220994","458262","458837","Stroop IC","77","130722","82","yes","1366","GREEN"
"47","93.9759036145","yes","93.9759036145","26","1583","1583","#ffffff","no","I","v;b;n;m","legacy","I have read and understood the information shown above","legacy","legacy","blue","0","inc","uniform","1","1","1","NA","0","0","0","0","0","78","78","78","78","78","0","0","5","0","78","78","0","0","NA","0","78","0","78","NA","0","78","78","12/06/16 14:38:06","The main experiment item","yes","b","W:\Sussex\Consciousness and control\Exp 1 - stroop suggestion and PCE\Methods\Palfi_script","no","mono","no","18","no","black","no","Ok","NA","no","Male","768","legacy","C:/Users/User/Dropbox/Sussex/Consciousness and control/Exp 1 - stroop suggestion and PCE/Methods/Palfi_script/laptop_size/subject-1_IC.csv","legacy","Interactive Ising","3.0.2","0","b","b","space","NA","747","747","4145","NA","2","legacy","1024","2","48000","-16","experiment","1","odd","NA","336625","165870","218245","162160","461769","461197","461734","462519","463507","332480","NA","332480","151060","462755","461232","NA","2302","NA","NA","420198","2302","463957","NA","220994","461195","461769","Stroop IC","78","131469","83","yes","1366","YELLOW"
"76","94.0476190476","yes","94.0476190476","26","1574","1574","#ffffff","no","I","v;b;n;m","legacy","I have read and understood the information shown above","legacy","legacy","#ffef36","0","inc","uniform","1","1","1","NA","0","0","0","0","0","79","79","79","79","79","0","0","5","0","79","79","0","0","NA","0","79","0","79","NA","0","79","79","12/06/16 14:38:06","The main experiment item","yes","m","W:\Sussex\Consciousness and control\Exp 1 - stroop suggestion and PCE\Methods\Palfi_script","no","mono","no","18","no","black","no","Ok","NA","no","Male","768","legacy","C:/Users/User/Dropbox/Sussex/Consciousness and control/Exp 1 - stroop suggestion and PCE/Methods/Palfi_script/laptop_size/subject-1_IC.csv","legacy","Interactive Ising","3.0.2","0","m","m","space","NA","771","771","4145","NA","2","legacy","1024","2","48000","-16","experiment","1","odd","NA","336625","165870","218245","162160","464696","464124","464661","465470","466458","332480","NA","332480","151060","465706","464159","NA","2302","NA","NA","420198","2302","466908","NA","220994","464122","464696","Stroop IC","79","132240","84","yes","1366","RED"
"80","94.1176470588","yes","94.1176470588","26","1564","1564","#ffffff","no","I","v;b;n;m","legacy","I have read and understood the information shown above","legacy","legacy","#ffef36","0","inc","uniform","1","1","1","NA","0","0","0","0","0","80","80","80","80","80","0","0","5","0","80","80","0","0","NA","0","80","0","80","NA","0","80","80","12/06/16 14:38:06","The main experiment item","yes","m","W:\Sussex\Consciousness and control\Exp 1 - stroop suggestion and PCE\Methods\Palfi_script","no","mono","no","18","no","black","no","Ok","NA","no","Male","768","legacy","C:/Users/User/Dropbox/Sussex/Consciousness and control/Exp 1 - stroop suggestion and PCE/Methods/Palfi_script/laptop_size/subject-1_IC.csv","legacy","Interactive Ising","3.0.2","0","m","m","space","NA","776","776","4145","NA","2","legacy","1024","2","48000","-16","experiment","1","odd","NA","336625","165870","218245","162160","467620","467048","467585","468399","469390","332480","NA","332480","151060","468636","467083","NA","2302","NA","NA","420198","2302","469840","NA","220994","467045","467620","Stroop IC","80","133016","85","yes","1366","RED"
"69","94.1860465116","yes","94.1860465116","26","1557","1557","#ffffff","no","I","v;b;n;m","legacy","I have read and understood the information shown above","legacy","legacy","green","0","inc","uniform","1","1","1","NA","0","0","0","0","0","81","81","81","81","81","0","0","5","0","81","81","0","0","NA","0","81","0","81","NA","0","81","81","12/06/16 14:38:06","The main experiment item","yes","n","W:\Sussex\Consciousness and control\Exp 1 - stroop suggestion and PCE\Methods\Palfi_script","no","mono","no","18","no","black","no","Ok","NA","no","Male","768","legacy","C:/Users/User/Dropbox/Sussex/Consciousness and control/Exp 1 - stroop suggestion and PCE/Methods/Palfi_script/laptop_size/subject-1_IC.csv","legacy","Interactive Ising","3.0.2","0","n","n","space","NA","958","958","4145","NA","2","legacy","1024","2","48000","-16","experiment","1","odd","NA","336625","165870","218245","162160","470546","469974","470511","471509","472500","332480","NA","332480","151060","471746","470009","NA","2302","NA","NA","420198","2302","472950","NA","220994","469971","470546","Stroop IC","81","133974","86","yes","1366","YELLOW"
"23","94.2528735632","yes","94.2528735632","26","1550","1550","#ffffff","no","I","v;b;n;m","legacy","I have read and understood the information shown above","legacy","legacy","red","0","inc","uniform","1","1","1","NA","0","0","0","0","0","82","82","82","82","82","0","0","5","0","82","82","0","0","NA","0","82","0","82","NA","0","82","82","12/06/16 14:38:06","The main experiment item","yes","v","W:\Sussex\Consciousness and control\Exp 1 - stroop suggestion and PCE\Methods\Palfi_script","no","mono","no","18","no","black","no","Ok","NA","no","Male","768","legacy","C:/Users/User/Dropbox/Sussex/Consciousness and control/Exp 1 - stroop suggestion and PCE/Methods/Palfi_script/laptop_size/subject-1_IC.csv","legacy","Interactive Ising","3.0.2","0","v","v","space","NA","924","924","4145","NA","2","legacy","1024","2","48000","-16","experiment","1","odd","NA","336625","165870","218245","162160","473697","473124","473662","474625","475616","332480","NA","332480","151060","474863","473160","NA","2302","NA","NA","420198","2302","476066","NA","220994","473122","473697","Stroop IC","82","134898","87","yes","1366","YELLOW"
"24","94.3181818182","yes","94.3181818182","26","1540","1540","#ffffff","no","I","v;b;n;m","legacy","I have read and understood the information shown above","legacy","legacy","red","0","inc","uniform","1","1","1","NA","0","0","0","0","0","83","83","83","83","83","0","0","5","0","83","83","0","0","NA","0","83","0","83","NA","0","83","83","12/06/16 14:38:06","The main experiment item","yes","v","W:\Sussex\Consciousness and control\Exp 1 - stroop suggestion and PCE\Methods\Palfi_script","no","mono","no","18","no","black","no","Ok","NA","no","Male","768","legacy","C:/Users/User/Dropbox/Sussex/Consciousness and control/Exp 1 - stroop suggestion and PCE/Methods/Palfi_script/laptop_size/subject-1_IC.csv","legacy","Interactive Ising","3.0.2","0","v","v","space","NA","688","688","4145","NA","2","legacy","1024","2","48000","-16","experiment","1","odd","NA","336625","165870","218245","162160","476836","476264","476801","477527","478515","332480","NA","332480","151060","477763","476299","NA","2302","NA","NA","420198","2302","478965","NA","220994","476262","476836","Stroop IC","83","135586","88","yes","1366","YELLOW"
"3","94.3820224719","yes","94.3820224719","26","1529","1529","#ffffff","no","I","v;b;n;m","legacy","I have read and understood the information shown above","legacy","legacy","red","0","inc","uniform","1","1","1","NA","0","0","0","0","0","84","84","84","84","84","0","0","5","0","84","84","0","0","NA","0","84","0","84","NA","0","84","84","12/06/16 14:38:06","The main experiment item","yes","v","W:\Sussex\Consciousness and control\Exp 1 - stroop suggestion and PCE\Methods\Palfi_script","no","mono","no","18","no","black","no","Ok","NA","no","Male","768","legacy","C:/Users/User/Dropbox/Sussex/Consciousness and control/Exp 1 - stroop suggestion and PCE/Methods/Palfi_script/laptop_size/subject-1_IC.csv","legacy","Interactive Ising","3.0.2","0","v","v","space","NA","583","583","4145","NA","2","legacy","1024","2","48000","-16","experiment","1","odd","NA","336625","165870","218245","162160","479675","479101","479639","480261","481249","332480","NA","332480","151060","480497","479137","NA","2302","NA","NA","420198","2302","481699","NA","220994","479099","479675","Stroop IC","84","136169","89","yes","1366","BLUE"
"82","94.4444444444","yes","94.4444444444","26","1525","1525","#ffffff","no","I","v;b;n;m","legacy","I have read and understood the information shown above","legacy","legacy","#ffef36","0","inc","uniform","1","1","1","NA","0","0","0","0","0","85","85","85","85","85","0","0","5","0","85","85","0","0","NA","0","85","0","85","NA","0","85","85","12/06/16 14:38:06","The main experiment item","yes","m","W:\Sussex\Consciousness and control\Exp 1 - stroop suggestion and PCE\Methods\Palfi_script","no","mono","no","18","no","black","no","Ok","NA","no","Male","768","legacy","C:/Users/User/Dropbox/Sussex/Consciousness and control/Exp 1 - stroop suggestion and PCE/Methods/Palfi_script/laptop_size/subject-1_IC.csv","legacy","Interactive Ising","3.0.2","0","m","m","space","NA","1105","1105","4145","NA","2","legacy","1024","2","48000","-16","experiment","1","odd","NA","336625","165870","218245","162160","482424","481851","482389","483532","484522","332480","NA","332480","151060","483768","481887","NA","2302","NA","NA","420198","2302","484972","NA","220994","481849","482424","Stroop IC","85","137274","90","yes","1366","BLUE"
"45","94.5054945055","yes","94.5054945055","26","1520","1520","#ffffff","no","I","v;b;n;m","legacy","I have read and understood the information shown above","legacy","legacy","blue","0","inc","uniform","1","1","1","NA","0","0","0","0","0","86","86","86","86","86","0","0","5","0","86","86","0","0","NA","0","86","0","86","NA","0","86","86","12/06/16 14:38:06","The main experiment item","yes","b","W:\Sussex\Consciousness and control\Exp 1 - stroop suggestion and PCE\Methods\Palfi_script","no","mono","no","18","no","black","no","Ok","NA","no","Male","768","legacy","C:/Users/User/Dropbox/Sussex/Consciousness and control/Exp 1 - stroop suggestion and PCE/Methods/Palfi_script/laptop_size/subject-1_IC.csv","legacy","Interactive Ising","3.0.2","0","b","b","space","NA","1074","1074","4145","NA","2","legacy","1024","2","48000","-16","experiment","1","odd","NA","336625","165870","218245","162160","485685","485113","485650","486762","487752","332480","NA","332480","151060","486999","485148","NA","2302","NA","NA","420198","2302","488202","NA","220994","485111","485685","Stroop IC","86","138348","91","yes","1366","YELLOW"
