"ID","acc","accept_status","accuracy","age","average_response_time","avg_rt","background","bidi","block","buttons","canvas_backend","checkbox_status","clock_backend","color_backend","colour","compensation","congruency","coordinates","correct","correct_answer","correct_button_block","correct_new_keyboard_response","count_C","count_I","count_Instruction","count_Practice_start","count_age","count_answer","count_blank","count_blank2","count_blank3","count_blank_4","count_break","count_break2","count_button_block","count_consent_form","count_correct_feedback","count_cross","count_end","count_experiment","count_feedback","count_gender","count_incorrect_feedback","count_information_sheet","count_logger","count_new_keyboard_response","count_practice","count_stroop","count_target","datetime","description","disable_garbage_collection","expected","experiment_path","font_bold","font_family","font_italic","font_size","font_underline","foreground","form_clicks","form_response","form_var","fullscreen","gender","height","keyboard_backend","logfile","mouse_backend","opensesame_codename","opensesame_version","repeat_cycle","response","response_answer","response_button_block","response_new_keyboard_response","response_time","response_time_answer","response_time_button_block","response_time_new_keyboard_response","round_decimals","sampler_backend","sound_buf_size","sound_channels","sound_freq","sound_sample_size","start","subject_nr","subject_parity","time_C","time_I","time_Instruction","time_Practice_start","time_age","time_answer","time_blank","time_blank2","time_blank3","time_blank_4","time_break","time_break2","time_button_block","time_consent_form","time_correct_feedback","time_cross","time_end","time_experiment","time_feedback","time_gender","time_incorrect_feedback","time_information_sheet","time_logger","time_new_keyboard_response","time_practice","time_stroop","time_target","title","total_correct","total_response_time","total_responses","uniform_coordinates","width","word"
"8","100","yes","100","21","18230","18230","#ffffff","no","practice","v;b;n;m","legacy","I have read and understood the information shown above","legacy","legacy","green","0","inc","uniform","1","1","1","NA","0","0","0","0","0","0","0","0","0","0","0","0","5","0","0","0","0","0","NA","0","0","0","0","NA","0","0","0","12/07/16 14:51:06","The main experiment item","yes","n","W:\Sussex\Consciousness and control\Exp 1 - stroop suggestion and PCE\Methods\Palfi_script","no","mono","no","18","no","black","no","Ok","NA","no","Female","768","legacy","C:/Users/User/Dropbox/Sussex/Consciousness and control/Exp 1 - stroop suggestion and PCE/Methods/Palfi_script/laptop_size/subject-9_IC.csv","legacy","Interactive Ising","3.0.2","0","n","n","space","NA","1865","1865","3195","NA","2","legacy","1024","2","48000","-16","experiment","9","odd","NA","NA","76372","139235","67899","143105","142532","143070","144973","145961","NA","NA","139235","54643","145209","142568","NA","3912","NA","NA","NA","3912","146411","NA","142431","142530","143105","Stroop IC","4","72923","4","yes","1366","BLUE"
"16","100","yes","100","21","14735","14735","#ffffff","no","practice","v;b;n;m","legacy","I have read and understood the information shown above","legacy","legacy","blue","0","con","uniform","1","1","1","NA","0","0","0","0","0","1","1","1","1","1","0","0","5","0","1","1","0","0","NA","0","1","0","1","NA","0","1","1","12/07/16 14:51:06","The main experiment item","yes","b","W:\Sussex\Consciousness and control\Exp 1 - stroop suggestion and PCE\Methods\Palfi_script","no","mono","no","18","no","black","no","Ok","NA","no","Female","768","legacy","C:/Users/User/Dropbox/Sussex/Consciousness and control/Exp 1 - stroop suggestion and PCE/Methods/Palfi_script/laptop_size/subject-9_IC.csv","legacy","Interactive Ising","3.0.2","0","b","b","space","NA","755","755","3195","NA","2","legacy","1024","2","48000","-16","experiment","9","odd","NA","NA","76372","139235","67899","147328","146755","147292","148086","149074","NA","NA","139235","54643","148322","146790","NA","3912","NA","NA","NA","3912","149524","NA","142431","146753","147328","Stroop IC","5","73678","5","yes","1366","BLUE"
"11","100","yes","100","21","12440","12440","#ffffff","no","practice","v;b;n;m","legacy","I have read and understood the information shown above","legacy","legacy","#ffef36","0","inc","uniform","1","1","1","NA","0","0","0","0","0","2","2","2","2","2","0","0","5","0","2","2","0","0","NA","0","2","0","2","NA","0","2","2","12/07/16 14:51:06","The main experiment item","yes","m","W:\Sussex\Consciousness and control\Exp 1 - stroop suggestion and PCE\Methods\Palfi_script","no","mono","no","18","no","black","no","Ok","NA","no","Female","768","legacy","C:/Users/User/Dropbox/Sussex/Consciousness and control/Exp 1 - stroop suggestion and PCE/Methods/Palfi_script/laptop_size/subject-9_IC.csv","legacy","Interactive Ising","3.0.2","0","m","m","space","NA","963","963","3195","NA","2","legacy","1024","2","48000","-16","experiment","9","odd","NA","NA","76372","139235","67899","150265","149692","150230","151231","152219","NA","NA","139235","54643","151467","149728","NA","3912","NA","NA","NA","3912","152669","NA","142431","149690","150265","Stroop IC","6","74641","6","yes","1366","BLUE"
"1","100","yes","100","21","10808","10808","#ffffff","no","practice","v;b;n;m","legacy","I have read and understood the information shown above","legacy","legacy","red","0","inc","uniform","1","1","1","NA","0","0","0","0","0","3","3","3","3","3","0","0","5","0","3","3","0","0","NA","0","3","0","3","NA","0","3","3","12/07/16 14:51:06","The main experiment item","yes","v","W:\Sussex\Consciousness and control\Exp 1 - stroop suggestion and PCE\Methods\Palfi_script","no","mono","no","18","no","black","no","Ok","NA","no","Female","768","legacy","C:/Users/User/Dropbox/Sussex/Consciousness and control/Exp 1 - stroop suggestion and PCE/Methods/Palfi_script/laptop_size/subject-9_IC.csv","legacy","Interactive Ising","3.0.2","0","v","v","space","NA","1016","1016","3195","NA","2","legacy","1024","2","48000","-16","experiment","9","odd","NA","NA","76372","139235","67899","153480","152907","153445","154499","155488","NA","NA","139235","54643","154736","152943","NA","3912","NA","NA","NA","3912","155938","NA","142431","152905","153480","Stroop IC","7","75657","7","yes","1366","BLUE"
"13","100","yes","100","21","9543","9543","#ffffff","no","practice","v;b;n;m","legacy","I have read and understood the information shown above","legacy","legacy","red","0","con","uniform","1","1","1","NA","0","0","0","0","0","4","4","4","4","4","0","0","5","0","4","4","0","0","NA","0","4","0","4","NA","0","4","4","12/07/16 14:51:06","The main experiment item","yes","v","W:\Sussex\Consciousness and control\Exp 1 - stroop suggestion and PCE\Methods\Palfi_script","no","mono","no","18","no","black","no","Ok","NA","no","Female","768","legacy","C:/Users/User/Dropbox/Sussex/Consciousness and control/Exp 1 - stroop suggestion and PCE/Methods/Palfi_script/laptop_size/subject-9_IC.csv","legacy","Interactive Ising","3.0.2","0","v","v","space","NA","690","690","3195","NA","2","legacy","1024","2","48000","-16","experiment","9","odd","NA","NA","76372","139235","67899","156720","156148","156685","157414","158402","NA","NA","139235","54643","157650","156183","NA","3912","NA","NA","NA","3912","158852","NA","142431","156145","156720","Stroop IC","8","76347","8","yes","1366","RED"
"9","100","yes","100","21","8647","8647","#ffffff","no","practice","v;b;n;m","legacy","I have read and understood the information shown above","legacy","legacy","green","0","inc","uniform","1","1","1","NA","0","0","0","0","0","5","5","5","5","5","0","0","5","0","5","5","0","0","NA","0","5","0","5","NA","0","5","5","12/07/16 14:51:06","The main experiment item","yes","n","W:\Sussex\Consciousness and control\Exp 1 - stroop suggestion and PCE\Methods\Palfi_script","no","mono","no","18","no","black","no","Ok","NA","no","Female","768","legacy","C:/Users/User/Dropbox/Sussex/Consciousness and control/Exp 1 - stroop suggestion and PCE/Methods/Palfi_script/laptop_size/subject-9_IC.csv","legacy","Interactive Ising","3.0.2","0","n","n","space","NA","1478","1478","3195","NA","2","legacy","1024","2","48000","-16","experiment","9","odd","NA","NA","76372","139235","67899","159568","158996","159533","161049","162037","NA","NA","139235","54643","161285","159031","NA","3912","NA","NA","NA","3912","162487","NA","142431","158994","159568","Stroop IC","9","77825","9","yes","1366","YELLOW"
"17","100","yes","100","21","7876","7876","#ffffff","no","practice","v;b;n;m","legacy","I have read and understood the information shown above","legacy","legacy","blue","0","con","uniform","1","1","1","NA","0","0","0","0","0","6","6","6","6","6","0","0","5","0","6","6","0","0","NA","0","6","0","6","NA","0","6","6","12/07/16 14:51:06","The main experiment item","yes","b","W:\Sussex\Consciousness and control\Exp 1 - stroop suggestion and PCE\Methods\Palfi_script","no","mono","no","18","no","black","no","Ok","NA","no","Female","768","legacy","C:/Users/User/Dropbox/Sussex/Consciousness and control/Exp 1 - stroop suggestion and PCE/Methods/Palfi_script/laptop_size/subject-9_IC.csv","legacy","Interactive Ising","3.0.2","0","b","b","space","NA","941","941","3195","NA","2","legacy","1024","2","48000","-16","experiment","9","odd","NA","NA","76372","139235","67899","163244","162672","163209","164188","165177","NA","NA","139235","54643","164425","162707","NA","3912","NA","NA","NA","3912","165627","NA","142431","162670","163244","Stroop IC","10","78766","10","yes","1366","BLUE"
"21","100","yes","100","21","7276","7276","#ffffff","no","practice","v;b;n;m","legacy","I have read and understood the information shown above","legacy","legacy","green","0","con","uniform","1","1","1","NA","0","0","0","0","0","7","7","7","7","7","0","0","5","0","7","7","0","0","NA","0","7","0","7","NA","0","7","7","12/07/16 14:51:06","The main experiment item","yes","n","W:\Sussex\Consciousness and control\Exp 1 - stroop suggestion and PCE\Methods\Palfi_script","no","mono","no","18","no","black","no","Ok","NA","no","Female","768","legacy","C:/Users/User/Dropbox/Sussex/Consciousness and control/Exp 1 - stroop suggestion and PCE/Methods/Palfi_script/laptop_size/subject-9_IC.csv","legacy","Interactive Ising","3.0.2","0","n","n","space","NA","1278","1278","3195","NA","2","legacy","1024","2","48000","-16","experiment","9","odd","NA","NA","76372","139235","67899","166473","165901","166438","167754","168742","NA","NA","139235","54643","167990","165936","NA","3912","NA","NA","NA","3912","169192","NA","142431","165899","166473","Stroop IC","11","80044","11","yes","1366","GREEN"
"2","100","yes","100","21","6742","6742","#ffffff","no","practice","v;b;n;m","legacy","I have read and understood the information shown above","legacy","legacy","red","0","inc","uniform","1","1","1","NA","0","0","0","0","0","8","8","8","8","8","0","0","5","0","8","8","0","0","NA","0","8","0","8","NA","0","8","8","12/07/16 14:51:06","The main experiment item","yes","v","W:\Sussex\Consciousness and control\Exp 1 - stroop suggestion and PCE\Methods\Palfi_script","no","mono","no","18","no","black","no","Ok","NA","no","Female","768","legacy","C:/Users/User/Dropbox/Sussex/Consciousness and control/Exp 1 - stroop suggestion and PCE/Methods/Palfi_script/laptop_size/subject-9_IC.csv","legacy","Interactive Ising","3.0.2","0","v","v","space","NA","860","860","3195","NA","2","legacy","1024","2","48000","-16","experiment","9","odd","NA","NA","76372","139235","67899","169925","169353","169890","170788","171776","NA","NA","139235","54643","171024","169388","NA","3912","NA","NA","NA","3912","172226","NA","142431","169350","169925","Stroop IC","12","80904","12","yes","1366","GREEN"
"23","100","yes","100","21","6278","6278","#ffffff","no","practice","v;b;n;m","legacy","I have read and understood the information shown above","legacy","legacy","#ffef36","0","con","uniform","1","1","1","NA","0","0","0","0","0","9","9","9","9","9","0","0","5","0","9","9","0","0","NA","0","9","0","9","NA","0","9","9","12/07/16 14:51:06","The main experiment item","yes","m","W:\Sussex\Consciousness and control\Exp 1 - stroop suggestion and PCE\Methods\Palfi_script","no","mono","no","18","no","black","no","Ok","NA","no","Female","768","legacy","C:/Users/User/Dropbox/Sussex/Consciousness and control/Exp 1 - stroop suggestion and PCE/Methods/Palfi_script/laptop_size/subject-9_IC.csv","legacy","Interactive Ising","3.0.2","0","m","m","space","NA","711","711","3195","NA","2","legacy","1024","2","48000","-16","experiment","9","odd","NA","NA","76372","139235","67899","173028","172456","172993","173743","174732","NA","NA","139235","54643","173979","172491","NA","3912","NA","NA","NA","3912","175182","NA","142431","172453","173028","Stroop IC","13","81615","13","yes","1366","YELLOW"
"33","100","yes","100","21","5891","5891","#ffffff","no","practice","v;b;n;m","legacy","I have read and understood the information shown above","legacy","legacy","green","0","neutral","uniform","1","1","1","NA","0","0","0","0","0","10","10","10","10","10","0","0","5","0","10","10","0","0","NA","0","10","0","10","NA","0","10","10","12/07/16 14:51:06","The main experiment item","yes","n","W:\Sussex\Consciousness and control\Exp 1 - stroop suggestion and PCE\Methods\Palfi_script","no","mono","no","18","no","black","no","Ok","NA","no","Female","768","legacy","C:/Users/User/Dropbox/Sussex/Consciousness and control/Exp 1 - stroop suggestion and PCE/Methods/Palfi_script/laptop_size/subject-9_IC.csv","legacy","Interactive Ising","3.0.2","0","n","n","space","NA","866","866","3195","NA","2","legacy","1024","2","48000","-16","experiment","9","odd","NA","NA","76372","139235","67899","175904","175331","175868","176773","177761","NA","NA","139235","54643","177009","175366","NA","3912","NA","NA","NA","3912","178211","NA","142431","175329","175903","Stroop IC","14","82481","14","yes","1366","FLOWER"
"27","100","yes","100","21","5563","5563","#ffffff","no","practice","v;b;n;m","legacy","I have read and understood the information shown above","legacy","legacy","red","0","neutral","uniform","1","1","1","NA","0","0","0","0","0","11","11","11","11","11","0","0","5","0","11","11","0","0","NA","0","11","0","11","NA","0","11","11","12/07/16 14:51:06","The main experiment item","yes","v","W:\Sussex\Consciousness and control\Exp 1 - stroop suggestion and PCE\Methods\Palfi_script","no","mono","no","18","no","black","no","Ok","NA","no","Female","768","legacy","C:/Users/User/Dropbox/Sussex/Consciousness and control/Exp 1 - stroop suggestion and PCE/Methods/Palfi_script/laptop_size/subject-9_IC.csv","legacy","Interactive Ising","3.0.2","0","v","v","space","NA","966","966","3195","NA","2","legacy","1024","2","48000","-16","experiment","9","odd","NA","NA","76372","139235","67899","178940","178367","178905","179909","180897","NA","NA","139235","54643","180145","178403","NA","3912","NA","NA","NA","3912","181347","NA","142431","178365","178940","Stroop IC","15","83447","15","yes","1366","FLOWER"
"4","100","yes","100","21","5257","5257","#ffffff","no","practice","v;b;n;m","legacy","I have read and understood the information shown above","legacy","legacy","blue","0","inc","uniform","1","1","1","NA","0","0","0","0","0","12","12","12","12","12","0","0","5","0","12","12","0","0","NA","0","12","0","12","NA","0","12","12","12/07/16 14:51:06","The main experiment item","yes","b","W:\Sussex\Consciousness and control\Exp 1 - stroop suggestion and PCE\Methods\Palfi_script","no","mono","no","18","no","black","no","Ok","NA","no","Female","768","legacy","C:/Users/User/Dropbox/Sussex/Consciousness and control/Exp 1 - stroop suggestion and PCE/Methods/Palfi_script/laptop_size/subject-9_IC.csv","legacy","Interactive Ising","3.0.2","0","b","b","space","NA","676","676","3195","NA","2","legacy","1024","2","48000","-16","experiment","9","odd","NA","NA","76372","139235","67899","182086","181514","182051","182765","183753","NA","NA","139235","54643","183001","181549","NA","3912","NA","NA","NA","3912","184203","NA","142431","181512","182086","Stroop IC","16","84123","16","yes","1366","RED"
"15","100","yes","100","21","4987","4987","#ffffff","no","practice","v;b;n;m","legacy","I have read and understood the information shown above","legacy","legacy","red","0","con","uniform","1","1","1","NA","0","0","0","0","0","13","13","13","13","13","0","0","5","0","13","13","0","0","NA","0","13","0","13","NA","0","13","13","12/07/16 14:51:06","The main experiment item","yes","v","W:\Sussex\Consciousness and control\Exp 1 - stroop suggestion and PCE\Methods\Palfi_script","no","mono","no","18","no","black","no","Ok","NA","no","Female","768","legacy","C:/Users/User/Dropbox/Sussex/Consciousness and control/Exp 1 - stroop suggestion and PCE/Methods/Palfi_script/laptop_size/subject-9_IC.csv","legacy","Interactive Ising","3.0.2","0","v","v","space","NA","664","664","3195","NA","2","legacy","1024","2","48000","-16","experiment","9","odd","NA","NA","76372","139235","67899","184933","184361","184898","185600","186588","NA","NA","139235","54643","185836","184396","NA","3912","NA","NA","NA","3912","187038","NA","142431","184358","184933","Stroop IC","17","84787","17","yes","1366","RED"
"35","100","yes","100","21","4743","4743","#ffffff","no","practice","v;b;n;m","legacy","I have read and understood the information shown above","legacy","legacy","#ffef36","0","neutral","uniform","1","1","1","NA","0","0","0","0","0","14","14","14","14","14","0","0","5","0","14","14","0","0","NA","0","14","0","14","NA","0","14","14","12/07/16 14:51:06","The main experiment item","yes","m","W:\Sussex\Consciousness and control\Exp 1 - stroop suggestion and PCE\Methods\Palfi_script","no","mono","no","18","no","black","no","Ok","NA","no","Female","768","legacy","C:/Users/User/Dropbox/Sussex/Consciousness and control/Exp 1 - stroop suggestion and PCE/Methods/Palfi_script/laptop_size/subject-9_IC.csv","legacy","Interactive Ising","3.0.2","0","m","m","space","NA","592","592","3195","NA","2","legacy","1024","2","48000","-16","experiment","9","odd","NA","NA","76372","139235","67899","188081","187509","188046","188675","189664","NA","NA","139235","54643","188911","187544","NA","3912","NA","NA","NA","3912","190115","NA","142431","187506","188081","Stroop IC","18","85379","18","yes","1366","SHIP"
"36","100","yes","100","21","4526","4526","#ffffff","no","practice","v;b;n;m","legacy","I have read and understood the information shown above","legacy","legacy","#ffef36","0","neutral","uniform","1","1","1","NA","0","0","0","0","0","15","15","15","15","15","0","0","5","0","15","15","0","0","NA","0","15","0","15","NA","0","15","15","12/07/16 14:51:06","The main experiment item","yes","m","W:\Sussex\Consciousness and control\Exp 1 - stroop suggestion and PCE\Methods\Palfi_script","no","mono","no","18","no","black","no","Ok","NA","no","Female","768","legacy","C:/Users/User/Dropbox/Sussex/Consciousness and control/Exp 1 - stroop suggestion and PCE/Methods/Palfi_script/laptop_size/subject-9_IC.csv","legacy","Interactive Ising","3.0.2","0","m","m","space","NA","626","626","3195","NA","2","legacy","1024","2","48000","-16","experiment","9","odd","NA","NA","76372","139235","67899","190967","190395","190932","191597","192588","NA","NA","139235","54643","191836","190430","NA","3912","NA","NA","NA","3912","193038","NA","142431","190393","190967","Stroop IC","19","86005","19","yes","1366","KNIFE"
"10","100","yes","100","21","4334","4334","#ffffff","no","practice","v;b;n;m","legacy","I have read and understood the information shown above","legacy","legacy","#ffef36","0","inc","uniform","1","1","1","NA","0","0","0","0","0","16","16","16","16","16","0","0","5","0","16","16","0","0","NA","0","16","0","16","NA","0","16","16","12/07/16 14:51:06","The main experiment item","yes","m","W:\Sussex\Consciousness and control\Exp 1 - stroop suggestion and PCE\Methods\Palfi_script","no","mono","no","18","no","black","no","Ok","NA","no","Female","768","legacy","C:/Users/User/Dropbox/Sussex/Consciousness and control/Exp 1 - stroop suggestion and PCE/Methods/Palfi_script/laptop_size/subject-9_IC.csv","legacy","Interactive Ising","3.0.2","0","m","m","space","NA","685","685","3195","NA","2","legacy","1024","2","48000","-16","experiment","9","odd","NA","NA","76372","139235","67899","193823","193251","193788","194511","195499","NA","NA","139235","54643","194747","193286","NA","3912","NA","NA","NA","3912","195949","NA","142431","193249","193823","Stroop IC","20","86690","20","yes","1366","RED"
"19","100","yes","100","21","4164","4164","#ffffff","no","practice","v;b;n;m","legacy","I have read and understood the information shown above","legacy","legacy","green","0","con","uniform","1","1","1","NA","0","0","0","0","0","17","17","17","17","17","0","0","5","0","17","17","0","0","NA","0","17","0","17","NA","0","17","17","12/07/16 14:51:06","The main experiment item","yes","n","W:\Sussex\Consciousness and control\Exp 1 - stroop suggestion and PCE\Methods\Palfi_script","no","mono","no","18","no","black","no","Ok","NA","no","Female","768","legacy","C:/Users/User/Dropbox/Sussex/Consciousness and control/Exp 1 - stroop suggestion and PCE/Methods/Palfi_script/laptop_size/subject-9_IC.csv","legacy","Interactive Ising","3.0.2","0","n","n","space","NA","758","758","3195","NA","2","legacy","1024","2","48000","-16","experiment","9","odd","NA","NA","76372","139235","67899","196716","196144","196681","197477","198465","NA","NA","139235","54643","197713","196179","NA","3912","NA","NA","NA","3912","198915","NA","142431","196142","196716","Stroop IC","21","87448","21","yes","1366","GREEN"
"28","100","yes","100","21","4021","4021","#ffffff","no","practice","v;b;n;m","legacy","I have read and understood the information shown above","legacy","legacy","blue","0","neutral","uniform","1","1","1","NA","0","0","0","0","0","18","18","18","18","18","0","0","5","0","18","18","0","0","NA","0","18","0","18","NA","0","18","18","12/07/16 14:51:06","The main experiment item","yes","b","W:\Sussex\Consciousness and control\Exp 1 - stroop suggestion and PCE\Methods\Palfi_script","no","mono","no","18","no","black","no","Ok","NA","no","Female","768","legacy","C:/Users/User/Dropbox/Sussex/Consciousness and control/Exp 1 - stroop suggestion and PCE/Methods/Palfi_script/laptop_size/subject-9_IC.csv","legacy","Interactive Ising","3.0.2","0","b","b","space","NA","1015","1015","3195","NA","2","legacy","1024","2","48000","-16","experiment","9","odd","NA","NA","76372","139235","67899","199836","199264","199801","200854","201842","NA","NA","139235","54643","201090","199299","NA","3912","NA","NA","NA","3912","202292","NA","142431","199262","199836","Stroop IC","22","88463","22","yes","1366","LOT"
"31","100","yes","100","21","3885","3885","#ffffff","no","practice","v;b;n;m","legacy","I have read and understood the information shown above","legacy","legacy","green","0","neutral","uniform","1","1","1","NA","0","0","0","0","0","19","19","19","19","19","0","0","5","0","19","19","0","0","NA","0","19","0","19","NA","0","19","19","12/07/16 14:51:06","The main experiment item","yes","n","W:\Sussex\Consciousness and control\Exp 1 - stroop suggestion and PCE\Methods\Palfi_script","no","mono","no","18","no","black","no","Ok","NA","no","Female","768","legacy","C:/Users/User/Dropbox/Sussex/Consciousness and control/Exp 1 - stroop suggestion and PCE/Methods/Palfi_script/laptop_size/subject-9_IC.csv","legacy","Interactive Ising","3.0.2","0","n","n","space","NA","904","904","3195","NA","2","legacy","1024","2","48000","-16","experiment","9","odd","NA","NA","76372","139235","67899","203023","202451","202988","203930","204918","NA","NA","139235","54643","204166","202486","NA","3912","NA","NA","NA","3912","205368","NA","142431","202449","203023","Stroop IC","23","89367","23","yes","1366","LOT"
"25","95.8333333333","yes","95.8333333333","21","3755","3755","#ffffff","no","practice","v;b;n;m","legacy","I have read and understood the information shown above","legacy","legacy","red","0","neutral","uniform","0","0","1","NA","0","0","0","0","0","20","20","20","20","20","0","0","5","0","20","20","0","0","NA","0","20","0","20","NA","0","20","20","12/07/16 14:51:06","The main experiment item","yes","v","W:\Sussex\Consciousness and control\Exp 1 - stroop suggestion and PCE\Methods\Palfi_script","no","mono","no","18","no","black","no","Ok","NA","no","Female","768","legacy","C:/Users/User/Dropbox/Sussex/Consciousness and control/Exp 1 - stroop suggestion and PCE/Methods/Palfi_script/laptop_size/subject-9_IC.csv","legacy","Interactive Ising","3.0.2","0","m","m","space","NA","760","760","3195","NA","2","legacy","1024","2","48000","-16","experiment","9","odd","NA","NA","76372","139235","67899","206318","205746","206283","207081","208070","NA","NA","139235","54643","204166","205781","NA","3912","NA","NA","207317","3912","208520","NA","142431","205743","206318","Stroop IC","23","90127","24","yes","1366","SHIP"
"22","96","yes","96","21","3633","3633","#ffffff","no","practice","v;b;n;m","legacy","I have read and understood the information shown above","legacy","legacy","#ffef36","0","con","uniform","1","1","1","NA","0","0","0","0","0","21","21","21","21","21","0","0","5","0","21","21","0","0","NA","0","21","0","21","NA","0","21","21","12/07/16 14:51:06","The main experiment item","yes","m","W:\Sussex\Consciousness and control\Exp 1 - stroop suggestion and PCE\Methods\Palfi_script","no","mono","no","18","no","black","no","Ok","NA","no","Female","768","legacy","C:/Users/User/Dropbox/Sussex/Consciousness and control/Exp 1 - stroop suggestion and PCE/Methods/Palfi_script/laptop_size/subject-9_IC.csv","legacy","Interactive Ising","3.0.2","0","m","m","space","NA","721","721","3195","NA","2","legacy","1024","2","48000","-16","experiment","9","odd","NA","NA","76372","139235","67899","209254","208681","209218","209978","210967","NA","NA","139235","54643","210214","208716","NA","3912","NA","NA","207317","3912","211417","NA","142431","208678","209253","Stroop IC","24","90848","25","yes","1366","YELLOW"
"20","96.1538461538","yes","96.1538461538","21","3529","3529","#ffffff","no","practice","v;b;n;m","legacy","I have read and understood the information shown above","legacy","legacy","green","0","con","uniform","1","1","1","NA","0","0","0","0","0","22","22","22","22","22","0","0","5","0","22","22","0","0","NA","0","22","0","22","NA","0","22","22","12/07/16 14:51:06","The main experiment item","yes","n","W:\Sussex\Consciousness and control\Exp 1 - stroop suggestion and PCE\Methods\Palfi_script","no","mono","no","18","no","black","no","Ok","NA","no","Female","768","legacy","C:/Users/User/Dropbox/Sussex/Consciousness and control/Exp 1 - stroop suggestion and PCE/Methods/Palfi_script/laptop_size/subject-9_IC.csv","legacy","Interactive Ising","3.0.2","0","n","n","space","NA","925","925","3195","NA","2","legacy","1024","2","48000","-16","experiment","9","odd","NA","NA","76372","139235","67899","212191","211619","212156","213119","214107","NA","NA","139235","54643","213355","211654","NA","3912","NA","NA","207317","3912","214557","NA","142431","211617","212191","Stroop IC","25","91773","26","yes","1366","GREEN"
"30","96.2962962963","yes","96.2962962963","21","3432","3432","#ffffff","no","practice","v;b;n;m","legacy","I have read and understood the information shown above","legacy","legacy","blue","0","neutral","uniform","1","1","1","NA","0","0","0","0","0","23","23","23","23","23","0","0","5","0","23","23","0","0","NA","0","23","0","23","NA","0","23","23","12/07/16 14:51:06","The main experiment item","yes","b","W:\Sussex\Consciousness and control\Exp 1 - stroop suggestion and PCE\Methods\Palfi_script","no","mono","no","18","no","black","no","Ok","NA","no","Female","768","legacy","C:/Users/User/Dropbox/Sussex/Consciousness and control/Exp 1 - stroop suggestion and PCE/Methods/Palfi_script/laptop_size/subject-9_IC.csv","legacy","Interactive Ising","3.0.2","0","b","b","space","NA","900","900","3195","NA","2","legacy","1024","2","48000","-16","experiment","9","odd","NA","NA","76372","139235","67899","215283","214711","215248","216185","217173","NA","NA","139235","54643","216421","214746","NA","3912","NA","NA","207317","3912","217624","NA","142431","214708","215283","Stroop IC","26","92673","27","yes","1366","FLOWER"
"12","96.4285714286","yes","96.4285714286","21","3348","3348","#ffffff","no","practice","v;b;n;m","legacy","I have read and understood the information shown above","legacy","legacy","#ffef36","0","inc","uniform","1","1","1","NA","0","0","0","0","0","24","24","24","24","24","0","0","5","0","24","24","0","0","NA","0","24","0","24","NA","0","24","24","12/07/16 14:51:06","The main experiment item","yes","m","W:\Sussex\Consciousness and control\Exp 1 - stroop suggestion and PCE\Methods\Palfi_script","no","mono","no","18","no","black","no","Ok","NA","no","Female","768","legacy","C:/Users/User/Dropbox/Sussex/Consciousness and control/Exp 1 - stroop suggestion and PCE/Methods/Palfi_script/laptop_size/subject-9_IC.csv","legacy","Interactive Ising","3.0.2","0","m","m","space","NA","1082","1082","3195","NA","2","legacy","1024","2","48000","-16","experiment","9","odd","NA","NA","76372","139235","67899","218358","217786","218323","219442","220431","NA","NA","139235","54643","219679","217821","NA","3912","NA","NA","207317","3912","220881","NA","142431","217784","218358","Stroop IC","27","93755","28","yes","1366","GREEN"
"6","96.5517241379","yes","96.5517241379","21","3275","3275","#ffffff","no","practice","v;b;n;m","legacy","I have read and understood the information shown above","legacy","legacy","blue","0","inc","uniform","1","1","1","NA","0","0","0","0","0","25","25","25","25","25","0","0","5","0","25","25","0","0","NA","0","25","0","25","NA","0","25","25","12/07/16 14:51:06","The main experiment item","yes","b","W:\Sussex\Consciousness and control\Exp 1 - stroop suggestion and PCE\Methods\Palfi_script","no","mono","no","18","no","black","no","Ok","NA","no","Female","768","legacy","C:/Users/User/Dropbox/Sussex/Consciousness and control/Exp 1 - stroop suggestion and PCE/Methods/Palfi_script/laptop_size/subject-9_IC.csv","legacy","Interactive Ising","3.0.2","0","b","b","space","NA","1223","1223","3195","NA","2","legacy","1024","2","48000","-16","experiment","9","odd","NA","NA","76372","139235","67899","221615","221043","221580","222841","223829","NA","NA","139235","54643","223077","221078","NA","3912","NA","NA","207317","3912","224279","NA","142431","221041","221615","Stroop IC","28","94978","29","yes","1366","YELLOW"
"3","96.6666666667","yes","96.6666666667","21","3189","3189","#ffffff","no","practice","v;b;n;m","legacy","I have read and understood the information shown above","legacy","legacy","red","0","inc","uniform","1","1","1","NA","0","0","0","0","0","26","26","26","26","26","0","0","5","0","26","26","0","0","NA","0","26","0","26","NA","0","26","26","12/07/16 14:51:06","The main experiment item","yes","v","W:\Sussex\Consciousness and control\Exp 1 - stroop suggestion and PCE\Methods\Palfi_script","no","mono","no","18","no","black","no","Ok","NA","no","Female","768","legacy","C:/Users/User/Dropbox/Sussex/Consciousness and control/Exp 1 - stroop suggestion and PCE/Methods/Palfi_script/laptop_size/subject-9_IC.csv","legacy","Interactive Ising","3.0.2","0","v","v","space","NA","698","698","3195","NA","2","legacy","1024","2","48000","-16","experiment","9","odd","NA","NA","76372","139235","67899","225031","224459","224996","225732","226720","NA","NA","139235","54643","225968","224494","NA","3912","NA","NA","207317","3912","227170","NA","142431","224457","225031","Stroop IC","29","95676","30","yes","1366","YELLOW"
"26","96.7741935484","yes","96.7741935484","21","3108","3108","#ffffff","no","practice","v;b;n;m","legacy","I have read and understood the information shown above","legacy","legacy","red","0","neutral","uniform","1","1","1","NA","0","0","0","0","0","27","27","27","27","27","0","0","5","0","27","27","0","0","NA","0","27","0","27","NA","0","27","27","12/07/16 14:51:06","The main experiment item","yes","v","W:\Sussex\Consciousness and control\Exp 1 - stroop suggestion and PCE\Methods\Palfi_script","no","mono","no","18","no","black","no","Ok","NA","no","Female","768","legacy","C:/Users/User/Dropbox/Sussex/Consciousness and control/Exp 1 - stroop suggestion and PCE/Methods/Palfi_script/laptop_size/subject-9_IC.csv","legacy","Interactive Ising","3.0.2","0","v","v","space","NA","674","674","3195","NA","2","legacy","1024","2","48000","-16","experiment","9","odd","NA","NA","76372","139235","67899","227887","227314","227851","228564","229552","NA","NA","139235","54643","228800","227349","NA","3912","NA","NA","207317","3912","230002","NA","142431","227312","227887","Stroop IC","30","96350","31","yes","1366","KNIFE"
"24","93.75","yes","93.75","21","3040","3040","#ffffff","no","practice","v;b;n;m","legacy","I have read and understood the information shown above","legacy","legacy","#ffef36","0","con","uniform","0","0","1","NA","0","0","0","0","0","28","28","28","28","28","0","0","5","0","28","28","0","0","NA","0","28","0","28","NA","0","28","28","12/07/16 14:51:06","The main experiment item","yes","m","W:\Sussex\Consciousness and control\Exp 1 - stroop suggestion and PCE\Methods\Palfi_script","no","mono","no","18","no","black","no","Ok","NA","no","Female","768","legacy","C:/Users/User/Dropbox/Sussex/Consciousness and control/Exp 1 - stroop suggestion and PCE/Methods/Palfi_script/laptop_size/subject-9_IC.csv","legacy","Interactive Ising","3.0.2","0","n","n","space","NA","930","930","3195","NA","2","legacy","1024","2","48000","-16","experiment","9","odd","NA","NA","76372","139235","67899","230709","230137","230674","231642","232631","NA","NA","139235","54643","228800","230172","NA","3912","NA","NA","231878","3912","233081","NA","142431","230135","230709","Stroop IC","30","97280","32","yes","1366","YELLOW"
"34","93.9393939394","yes","93.9393939394","21","2975","2975","#ffffff","no","practice","v;b;n;m","legacy","I have read and understood the information shown above","legacy","legacy","#ffef36","0","neutral","uniform","1","1","1","NA","0","0","0","0","0","29","29","29","29","29","0","0","5","0","29","29","0","0","NA","0","29","0","29","NA","0","29","29","12/07/16 14:51:06","The main experiment item","yes","m","W:\Sussex\Consciousness and control\Exp 1 - stroop suggestion and PCE\Methods\Palfi_script","no","mono","no","18","no","black","no","Ok","NA","no","Female","768","legacy","C:/Users/User/Dropbox/Sussex/Consciousness and control/Exp 1 - stroop suggestion and PCE/Methods/Palfi_script/laptop_size/subject-9_IC.csv","legacy","Interactive Ising","3.0.2","0","m","m","space","NA","895","895","3195","NA","2","legacy","1024","2","48000","-16","experiment","9","odd","NA","NA","76372","139235","67899","233880","233308","233845","234779","235767","NA","NA","139235","54643","235015","233343","NA","3912","NA","NA","231878","3912","236217","NA","142431","233306","233880","Stroop IC","31","98175","33","yes","1366","LOT"
"32","94.1176470588","yes","94.1176470588","21","2936","2936","#ffffff","no","practice","v;b;n;m","legacy","I have read and understood the information shown above","legacy","legacy","green","0","neutral","uniform","1","1","1","NA","0","0","0","0","0","30","30","30","30","30","0","0","5","0","30","30","0","0","NA","0","30","0","30","NA","0","30","30","12/07/16 14:51:06","The main experiment item","yes","n","W:\Sussex\Consciousness and control\Exp 1 - stroop suggestion and PCE\Methods\Palfi_script","no","mono","no","18","no","black","no","Ok","NA","no","Female","768","legacy","C:/Users/User/Dropbox/Sussex/Consciousness and control/Exp 1 - stroop suggestion and PCE/Methods/Palfi_script/laptop_size/subject-9_IC.csv","legacy","Interactive Ising","3.0.2","0","n","n","space","NA","1682","1682","3195","NA","2","legacy","1024","2","48000","-16","experiment","9","odd","NA","NA","76372","139235","67899","236928","236356","236893","238613","239601","NA","NA","139235","54643","238849","236391","NA","3912","NA","NA","231878","3912","240052","NA","142431","236353","236928","Stroop IC","32","99857","34","yes","1366","SHIP"
"5","94.2857142857","yes","94.2857142857","21","2874","2874","#ffffff","no","practice","v;b;n;m","legacy","I have read and understood the information shown above","legacy","legacy","blue","0","inc","uniform","1","1","1","NA","0","0","0","0","0","31","31","31","31","31","0","0","5","0","31","31","0","0","NA","0","31","0","31","NA","0","31","31","12/07/16 14:51:06","The main experiment item","yes","b","W:\Sussex\Consciousness and control\Exp 1 - stroop suggestion and PCE\Methods\Palfi_script","no","mono","no","18","no","black","no","Ok","NA","no","Female","768","legacy","C:/Users/User/Dropbox/Sussex/Consciousness and control/Exp 1 - stroop suggestion and PCE/Methods/Palfi_script/laptop_size/subject-9_IC.csv","legacy","Interactive Ising","3.0.2","0","b","b","space","NA","739","739","3195","NA","2","legacy","1024","2","48000","-16","experiment","9","odd","NA","NA","76372","139235","67899","240773","240200","240738","241517","242505","NA","NA","139235","54643","241753","240236","NA","3912","NA","NA","231878","3912","242955","NA","142431","240198","240773","Stroop IC","33","100596","35","yes","1366","GREEN"
"7","94.4444444444","yes","94.4444444444","21","2827","2827","#ffffff","no","practice","v;b;n;m","legacy","I have read and understood the information shown above","legacy","legacy","green","0","inc","uniform","1","1","1","NA","0","0","0","0","0","32","32","32","32","32","0","0","5","0","32","32","0","0","NA","0","32","0","32","NA","0","32","32","12/07/16 14:51:06","The main experiment item","yes","n","W:\Sussex\Consciousness and control\Exp 1 - stroop suggestion and PCE\Methods\Palfi_script","no","mono","no","18","no","black","no","Ok","NA","no","Female","768","legacy","C:/Users/User/Dropbox/Sussex/Consciousness and control/Exp 1 - stroop suggestion and PCE/Methods/Palfi_script/laptop_size/subject-9_IC.csv","legacy","Interactive Ising","3.0.2","0","n","n","space","NA","1201","1201","3195","NA","2","legacy","1024","2","48000","-16","experiment","9","odd","NA","NA","76372","139235","67899","243720","243148","243685","244925","245913","NA","NA","139235","54643","245161","243183","NA","3912","NA","NA","231878","3912","246363","NA","142431","243146","243720","Stroop IC","34","101797","36","yes","1366","RED"
"14","94.5945945946","yes","94.5945945946","21","2769","2769","#ffffff","no","practice","v;b;n;m","legacy","I have read and understood the information shown above","legacy","legacy","red","0","con","uniform","1","1","1","NA","0","0","0","0","0","33","33","33","33","33","0","0","5","0","33","33","0","0","NA","0","33","0","33","NA","0","33","33","12/07/16 14:51:06","The main experiment item","yes","v","W:\Sussex\Consciousness and control\Exp 1 - stroop suggestion and PCE\Methods\Palfi_script","no","mono","no","18","no","black","no","Ok","NA","no","Female","768","legacy","C:/Users/User/Dropbox/Sussex/Consciousness and control/Exp 1 - stroop suggestion and PCE/Methods/Palfi_script/laptop_size/subject-9_IC.csv","legacy","Interactive Ising","3.0.2","0","v","v","space","NA","663","663","3195","NA","2","legacy","1024","2","48000","-16","experiment","9","odd","NA","NA","76372","139235","67899","247118","246546","247083","247784","248772","NA","NA","139235","54643","248020","246581","NA","3912","NA","NA","231878","3912","249222","NA","142431","246543","247118","Stroop IC","35","102460","37","yes","1366","RED"
"18","94.7368421053","yes","94.7368421053","21","2715","2715","#ffffff","no","practice","v;b;n;m","legacy","I have read and understood the information shown above","legacy","legacy","blue","0","con","uniform","1","1","1","NA","0","0","0","0","0","34","34","34","34","34","0","0","5","0","34","34","0","0","NA","0","34","0","34","NA","0","34","34","12/07/16 14:51:06","The main experiment item","yes","b","W:\Sussex\Consciousness and control\Exp 1 - stroop suggestion and PCE\Methods\Palfi_script","no","mono","no","18","no","black","no","Ok","NA","no","Female","768","legacy","C:/Users/User/Dropbox/Sussex/Consciousness and control/Exp 1 - stroop suggestion and PCE/Methods/Palfi_script/laptop_size/subject-9_IC.csv","legacy","Interactive Ising","3.0.2","0","b","b","space","NA","737","737","3195","NA","2","legacy","1024","2","48000","-16","experiment","9","odd","NA","NA","76372","139235","67899","249975","249403","249940","250716","251707","NA","NA","139235","54643","250953","249438","NA","3912","NA","NA","231878","3912","252157","NA","142431","249401","249975","Stroop IC","36","103197","38","yes","1366","BLUE"
"29","94.8717948718","yes","94.8717948718","21","2664","2664","#ffffff","no","practice","v;b;n;m","legacy","I have read and understood the information shown above","legacy","legacy","blue","0","neutral","uniform","1","1","1","NA","0","0","0","0","0","35","35","35","35","35","0","0","5","0","35","35","0","0","NA","0","35","0","35","NA","0","35","35","12/07/16 14:51:06","The main experiment item","yes","b","W:\Sussex\Consciousness and control\Exp 1 - stroop suggestion and PCE\Methods\Palfi_script","no","mono","no","18","no","black","no","Ok","NA","no","Female","768","legacy","C:/Users/User/Dropbox/Sussex/Consciousness and control/Exp 1 - stroop suggestion and PCE/Methods/Palfi_script/laptop_size/subject-9_IC.csv","legacy","Interactive Ising","3.0.2","0","b","b","space","NA","733","733","3195","NA","2","legacy","1024","2","48000","-16","experiment","9","odd","NA","NA","76372","139235","67899","252861","252289","252826","253598","254588","NA","NA","139235","54643","253835","252324","NA","3912","NA","NA","231878","3912","255038","NA","142431","252285","252861","Stroop IC","37","103930","39","yes","1366","KNIFE"
"85","95.1219512195","yes","95.1219512195","21","2726","2726","#ffffff","no","I","v;b;n;m","legacy","I have read and understood the information shown above","legacy","legacy","#ffef36","0","inc","uniform","1","1","1","NA","0","0","0","0","0","36","36","36","36","36","0","0","5","0","36","36","0","0","NA","0","36","0","36","NA","0","36","36","12/07/16 14:51:06","The main experiment item","yes","m","W:\Sussex\Consciousness and control\Exp 1 - stroop suggestion and PCE\Methods\Palfi_script","no","mono","no","18","no","black","no","Ok","NA","no","Female","768","legacy","C:/Users/User/Dropbox/Sussex/Consciousness and control/Exp 1 - stroop suggestion and PCE/Methods/Palfi_script/laptop_size/subject-9_IC.csv","legacy","Interactive Ising","3.0.2","0","m","m","space","NA","1628","1628","6227","NA","2","legacy","1024","2","48000","-16","experiment","9","odd","NA","261562","76372","139235","67899","262263","261690","262228","263894","264882","255333","NA","255334","54643","264130","261725","NA","3912","NA","NA","231878","3912","265332","NA","142431","261688","262263","Stroop IC","39","111785","41","yes","1366","BLUE"
"90","95.2380952381","yes","95.2380952381","21","2676","2676","#ffffff","no","I","v;b;n;m","legacy","I have read and understood the information shown above","legacy","legacy","#ffef36","0","inc","uniform","1","1","1","NA","0","0","0","0","0","37","37","37","37","37","0","0","5","0","37","37","0","0","NA","0","37","0","37","NA","0","37","37","12/07/16 14:51:06","The main experiment item","yes","m","W:\Sussex\Consciousness and control\Exp 1 - stroop suggestion and PCE\Methods\Palfi_script","no","mono","no","18","no","black","no","Ok","NA","no","Female","768","legacy","C:/Users/User/Dropbox/Sussex/Consciousness and control/Exp 1 - stroop suggestion and PCE/Methods/Palfi_script/laptop_size/subject-9_IC.csv","legacy","Interactive Ising","3.0.2","0","m","m","space","NA","622","622","6227","NA","2","legacy","1024","2","48000","-16","experiment","9","odd","NA","261562","76372","139235","67899","266043","265471","266008","266668","267656","255333","NA","255334","54643","266904","265506","NA","3912","NA","NA","231878","3912","268106","NA","142431","265469","266043","Stroop IC","40","112407","42","yes","1366","GREEN"
"60","95.3488372093","yes","95.3488372093","21","2630","2630","#ffffff","no","I","v;b;n;m","legacy","I have read and understood the information shown above","legacy","legacy","green","0","inc","uniform","1","1","1","NA","0","0","0","0","0","38","38","38","38","38","0","0","5","0","38","38","0","0","NA","0","38","0","38","NA","0","38","38","12/07/16 14:51:06","The main experiment item","yes","n","W:\Sussex\Consciousness and control\Exp 1 - stroop suggestion and PCE\Methods\Palfi_script","no","mono","no","18","no","black","no","Ok","NA","no","Female","768","legacy","C:/Users/User/Dropbox/Sussex/Consciousness and control/Exp 1 - stroop suggestion and PCE/Methods/Palfi_script/laptop_size/subject-9_IC.csv","legacy","Interactive Ising","3.0.2","0","n","n","space","NA","711","711","6227","NA","2","legacy","1024","2","48000","-16","experiment","9","odd","NA","261562","76372","139235","67899","268826","268254","268791","269540","270528","255333","NA","255334","54643","269776","268289","NA","3912","NA","NA","231878","3912","270978","NA","142431","268252","268826","Stroop IC","41","113118","43","yes","1366","BLUE"
"39","95.4545454545","yes","95.4545454545","21","2586","2586","#ffffff","no","I","v;b;n;m","legacy","I have read and understood the information shown above","legacy","legacy","blue","0","inc","uniform","1","1","1","NA","0","0","0","0","0","39","39","39","39","39","0","0","5","0","39","39","0","0","NA","0","39","0","39","NA","0","39","39","12/07/16 14:51:06","The main experiment item","yes","b","W:\Sussex\Consciousness and control\Exp 1 - stroop suggestion and PCE\Methods\Palfi_script","no","mono","no","18","no","black","no","Ok","NA","no","Female","768","legacy","C:/Users/User/Dropbox/Sussex/Consciousness and control/Exp 1 - stroop suggestion and PCE/Methods/Palfi_script/laptop_size/subject-9_IC.csv","legacy","Interactive Ising","3.0.2","0","b","b","space","NA","672","672","6227","NA","2","legacy","1024","2","48000","-16","experiment","9","odd","NA","261562","76372","139235","67899","271721","271148","271686","272396","273385","255333","NA","255334","54643","272633","271184","NA","3912","NA","NA","231878","3912","273835","NA","142431","271146","271721","Stroop IC","42","113790","44","yes","1366","GREEN"
"45","95.5555555556","yes","95.5555555556","21","2543","2543","#ffffff","no","I","v;b;n;m","legacy","I have read and understood the information shown above","legacy","legacy","blue","0","inc","uniform","1","1","1","NA","0","0","0","0","0","40","40","40","40","40","0","0","5","0","40","40","0","0","NA","0","40","0","40","NA","0","40","40","12/07/16 14:51:06","The main experiment item","yes","b","W:\Sussex\Consciousness and control\Exp 1 - stroop suggestion and PCE\Methods\Palfi_script","no","mono","no","18","no","black","no","Ok","NA","no","Female","768","legacy","C:/Users/User/Dropbox/Sussex/Consciousness and control/Exp 1 - stroop suggestion and PCE/Methods/Palfi_script/laptop_size/subject-9_IC.csv","legacy","Interactive Ising","3.0.2","0","b","b","space","NA","648","648","6227","NA","2","legacy","1024","2","48000","-16","experiment","9","odd","NA","261562","76372","139235","67899","274577","274003","274541","275228","276216","255333","NA","255334","54643","275464","274039","NA","3912","NA","NA","231878","3912","276666","NA","142431","274000","274576","Stroop IC","43","114438","45","yes","1366","YELLOW"
"33","95.652173913","yes","95.652173913","21","2499","2499","#ffffff","no","I","v;b;n;m","legacy","I have read and understood the information shown above","legacy","legacy","blue","0","inc","uniform","1","1","1","NA","0","0","0","0","0","41","41","41","41","41","0","0","5","0","41","41","0","0","NA","0","41","0","41","NA","0","41","41","12/07/16 14:51:06","The main experiment item","yes","b","W:\Sussex\Consciousness and control\Exp 1 - stroop suggestion and PCE\Methods\Palfi_script","no","mono","no","18","no","black","no","Ok","NA","no","Female","768","legacy","C:/Users/User/Dropbox/Sussex/Consciousness and control/Exp 1 - stroop suggestion and PCE/Methods/Palfi_script/laptop_size/subject-9_IC.csv","legacy","Interactive Ising","3.0.2","0","b","b","space","NA","518","518","6227","NA","2","legacy","1024","2","48000","-16","experiment","9","odd","NA","261562","76372","139235","67899","277461","276888","277425","277983","278971","255333","NA","255334","54643","278219","276923","NA","3912","NA","NA","231878","3912","279421","NA","142431","276885","277461","Stroop IC","44","114956","46","yes","1366","GREEN"
"11","95.7446808511","yes","95.7446808511","21","2459","2459","#ffffff","no","I","v;b;n;m","legacy","I have read and understood the information shown above","legacy","legacy","red","0","inc","uniform","1","1","1","NA","0","0","0","0","0","42","42","42","42","42","0","0","5","0","42","42","0","0","NA","0","42","0","42","NA","0","42","42","12/07/16 14:51:06","The main experiment item","yes","v","W:\Sussex\Consciousness and control\Exp 1 - stroop suggestion and PCE\Methods\Palfi_script","no","mono","no","18","no","black","no","Ok","NA","no","Female","768","legacy","C:/Users/User/Dropbox/Sussex/Consciousness and control/Exp 1 - stroop suggestion and PCE/Methods/Palfi_script/laptop_size/subject-9_IC.csv","legacy","Interactive Ising","3.0.2","0","v","v","space","NA","653","653","6227","NA","2","legacy","1024","2","48000","-16","experiment","9","odd","NA","261562","76372","139235","67899","280154","279581","280119","280813","281801","255333","NA","255334","54643","281049","279617","NA","3912","NA","NA","231878","3912","282251","NA","142431","279579","280154","Stroop IC","45","115609","47","yes","1366","GREEN"
"99","95.8333333333","yes","95.8333333333","21","2422","2422","#ffffff","no","I","v;b;n;m","legacy","I have read and understood the information shown above","legacy","legacy","red","0","con","uniform","1","1","1","NA","0","0","0","0","0","43","43","43","43","43","0","0","5","0","43","43","0","0","NA","0","43","0","43","NA","0","43","43","12/07/16 14:51:06","The main experiment item","yes","v","W:\Sussex\Consciousness and control\Exp 1 - stroop suggestion and PCE\Methods\Palfi_script","no","mono","no","18","no","black","no","Ok","NA","no","Female","768","legacy","C:/Users/User/Dropbox/Sussex/Consciousness and control/Exp 1 - stroop suggestion and PCE/Methods/Palfi_script/laptop_size/subject-9_IC.csv","legacy","Interactive Ising","3.0.2","0","v","v","space","NA","693","693","6227","NA","2","legacy","1024","2","48000","-16","experiment","9","odd","NA","261562","76372","139235","67899","283013","282441","282978","283711","284699","255333","NA","255334","54643","283947","282476","NA","3912","NA","NA","231878","3912","285149","NA","142431","282438","283013","Stroop IC","46","116302","48","yes","1366","RED"
"15","95.9183673469","yes","95.9183673469","21","2386","2386","#ffffff","no","I","v;b;n;m","legacy","I have read and understood the information shown above","legacy","legacy","red","0","inc","uniform","1","1","1","NA","0","0","0","0","0","44","44","44","44","44","0","0","5","0","44","44","0","0","NA","0","44","0","44","NA","0","44","44","12/07/16 14:51:06","The main experiment item","yes","v","W:\Sussex\Consciousness and control\Exp 1 - stroop suggestion and PCE\Methods\Palfi_script","no","mono","no","18","no","black","no","Ok","NA","no","Female","768","legacy","C:/Users/User/Dropbox/Sussex/Consciousness and control/Exp 1 - stroop suggestion and PCE/Methods/Palfi_script/laptop_size/subject-9_IC.csv","legacy","Interactive Ising","3.0.2","0","v","v","space","NA","645","645","6227","NA","2","legacy","1024","2","48000","-16","experiment","9","odd","NA","261562","76372","139235","67899","287974","287402","287939","288622","289610","255333","NA","255334","54643","288858","287437","NA","3912","NA","NA","231878","3912","290060","NA","142431","287399","287974","Stroop IC","47","116947","49","yes","1366","GREEN"
"111","96","yes","96","21","2348","2348","#ffffff","no","I","v;b;n;m","legacy","I have read and understood the information shown above","legacy","legacy","red","0","neutral","uniform","1","1","1","NA","0","0","0","0","0","45","45","45","45","45","0","0","5","0","45","45","0","0","NA","0","45","0","45","NA","0","45","45","12/07/16 14:51:06","The main experiment item","yes","v","W:\Sussex\Consciousness and control\Exp 1 - stroop suggestion and PCE\Methods\Palfi_script","no","mono","no","18","no","black","no","Ok","NA","no","Female","768","legacy","C:/Users/User/Dropbox/Sussex/Consciousness and control/Exp 1 - stroop suggestion and PCE/Methods/Palfi_script/laptop_size/subject-9_IC.csv","legacy","Interactive Ising","3.0.2","0","v","v","space","NA","470","470","6227","NA","2","legacy","1024","2","48000","-16","experiment","9","odd","NA","261562","76372","139235","67899","290813","290241","290778","291286","292274","255333","NA","255334","54643","291522","290276","NA","3912","NA","NA","231878","3912","292724","NA","142431","290239","290813","Stroop IC","48","117417","50","yes","1366","FLOWER"
"30","96.0784313725","yes","96.0784313725","21","2315","2315","#ffffff","no","I","v;b;n;m","legacy","I have read and understood the information shown above","legacy","legacy","blue","0","inc","uniform","1","1","1","NA","0","0","0","0","0","46","46","46","46","46","0","0","5","0","46","46","0","0","NA","0","46","0","46","NA","0","46","46","12/07/16 14:51:06","The main experiment item","yes","b","W:\Sussex\Consciousness and control\Exp 1 - stroop suggestion and PCE\Methods\Palfi_script","no","mono","no","18","no","black","no","Ok","NA","no","Female","768","legacy","C:/Users/User/Dropbox/Sussex/Consciousness and control/Exp 1 - stroop suggestion and PCE/Methods/Palfi_script/laptop_size/subject-9_IC.csv","legacy","Interactive Ising","3.0.2","0","b","b","space","NA","693","693","6227","NA","2","legacy","1024","2","48000","-16","experiment","9","odd","NA","261562","76372","139235","67899","293439","292867","293404","294136","295124","255333","NA","255334","54643","294372","292902","NA","3912","NA","NA","231878","3912","295574","NA","142431","292865","293439","Stroop IC","49","118110","51","yes","1366","RED"
"69","96.1538461538","yes","96.1538461538","21","2294","2294","#ffffff","no","I","v;b;n;m","legacy","I have read and understood the information shown above","legacy","legacy","green","0","inc","uniform","1","1","1","NA","0","0","0","0","0","47","47","47","47","47","0","0","5","0","47","47","0","0","NA","0","47","0","47","NA","0","47","47","12/07/16 14:51:06","The main experiment item","yes","n","W:\Sussex\Consciousness and control\Exp 1 - stroop suggestion and PCE\Methods\Palfi_script","no","mono","no","18","no","black","no","Ok","NA","no","Female","768","legacy","C:/Users/User/Dropbox/Sussex/Consciousness and control/Exp 1 - stroop suggestion and PCE/Methods/Palfi_script/laptop_size/subject-9_IC.csv","legacy","Interactive Ising","3.0.2","0","n","n","space","NA","1183","1183","6227","NA","2","legacy","1024","2","48000","-16","experiment","9","odd","NA","261562","76372","139235","67899","296310","295738","296275","297496","298484","255333","NA","255334","54643","297732","295773","NA","3912","NA","NA","231878","3912","298934","NA","142431","295736","296310","Stroop IC","50","119293","52","yes","1366","YELLOW"
"5","96.2264150943","yes","96.2264150943","21","2266","2266","#ffffff","no","I","v;b;n;m","legacy","I have read and understood the information shown above","legacy","legacy","red","0","inc","uniform","1","1","1","NA","0","0","0","0","0","48","48","48","48","48","0","0","5","0","48","48","0","0","NA","0","48","0","48","NA","0","48","48","12/07/16 14:51:06","The main experiment item","yes","v","W:\Sussex\Consciousness and control\Exp 1 - stroop suggestion and PCE\Methods\Palfi_script","no","mono","no","18","no","black","no","Ok","NA","no","Female","768","legacy","C:/Users/User/Dropbox/Sussex/Consciousness and control/Exp 1 - stroop suggestion and PCE/Methods/Palfi_script/laptop_size/subject-9_IC.csv","legacy","Interactive Ising","3.0.2","0","v","v","space","NA","846","846","6227","NA","2","legacy","1024","2","48000","-16","experiment","9","odd","NA","261562","76372","139235","67899","299714","299139","299677","300563","301551","255333","NA","255334","54643","300799","299175","NA","3912","NA","NA","231878","3912","302001","NA","142431","299137","299713","Stroop IC","51","120139","53","yes","1366","BLUE"
"67","96.2962962963","yes","96.2962962963","21","2242","2242","#ffffff","no","I","v;b;n;m","legacy","I have read and understood the information shown above","legacy","legacy","green","0","inc","uniform","1","1","1","NA","0","0","0","0","0","49","49","49","49","49","0","0","5","0","49","49","0","0","NA","0","49","0","49","NA","0","49","49","12/07/16 14:51:06","The main experiment item","yes","n","W:\Sussex\Consciousness and control\Exp 1 - stroop suggestion and PCE\Methods\Palfi_script","no","mono","no","18","no","black","no","Ok","NA","no","Female","768","legacy","C:/Users/User/Dropbox/Sussex/Consciousness and control/Exp 1 - stroop suggestion and PCE/Methods/Palfi_script/laptop_size/subject-9_IC.csv","legacy","Interactive Ising","3.0.2","0","n","n","space","NA","940","940","6227","NA","2","legacy","1024","2","48000","-16","experiment","9","odd","NA","261562","76372","139235","67899","302778","302205","302743","303721","304709","255333","NA","255334","54643","303957","302241","NA","3912","NA","NA","231878","3912","305159","NA","142431","302203","302778","Stroop IC","52","121079","54","yes","1366","YELLOW"
"89","96.3636363636","yes","96.3636363636","21","2220","2220","#ffffff","no","I","v;b;n;m","legacy","I have read and understood the information shown above","legacy","legacy","#ffef36","0","inc","uniform","1","1","1","NA","0","0","0","0","0","50","50","50","50","50","0","0","5","0","50","50","0","0","NA","0","50","0","50","NA","0","50","50","12/07/16 14:51:06","The main experiment item","yes","m","W:\Sussex\Consciousness and control\Exp 1 - stroop suggestion and PCE\Methods\Palfi_script","no","mono","no","18","no","black","no","Ok","NA","no","Female","768","legacy","C:/Users/User/Dropbox/Sussex/Consciousness and control/Exp 1 - stroop suggestion and PCE/Methods/Palfi_script/laptop_size/subject-9_IC.csv","legacy","Interactive Ising","3.0.2","0","m","m","space","NA","1040","1040","6227","NA","2","legacy","1024","2","48000","-16","experiment","9","odd","NA","261562","76372","139235","67899","305976","305403","305941","307019","308007","255333","NA","255334","54643","307255","305439","NA","3912","NA","NA","231878","3912","308457","NA","142431","305401","305976","Stroop IC","53","122119","55","yes","1366","GREEN"
"92","96.4285714286","yes","96.4285714286","21","2197","2197","#ffffff","no","I","v;b;n;m","legacy","I have read and understood the information shown above","legacy","legacy","#ffef36","0","inc","uniform","1","1","1","NA","0","0","0","0","0","51","51","51","51","51","0","0","5","0","51","51","0","0","NA","0","51","0","51","NA","0","51","51","12/07/16 14:51:06","The main experiment item","yes","m","W:\Sussex\Consciousness and control\Exp 1 - stroop suggestion and PCE\Methods\Palfi_script","no","mono","no","18","no","black","no","Ok","NA","no","Female","768","legacy","C:/Users/User/Dropbox/Sussex/Consciousness and control/Exp 1 - stroop suggestion and PCE/Methods/Palfi_script/laptop_size/subject-9_IC.csv","legacy","Interactive Ising","3.0.2","0","m","m","space","NA","934","934","6227","NA","2","legacy","1024","2","48000","-16","experiment","9","odd","NA","261562","76372","139235","67899","309238","308666","309203","310176","311164","255333","NA","255334","54643","310412","308701","NA","3912","NA","NA","231878","3912","311614","NA","142431","308664","309238","Stroop IC","54","123053","56","yes","1366","GREEN"
"91","96.4912280702","yes","96.4912280702","21","2169","2169","#ffffff","no","I","v;b;n;m","legacy","I have read and understood the information shown above","legacy","legacy","#ffef36","0","inc","uniform","1","1","1","NA","0","0","0","0","0","52","52","52","52","52","0","0","5","0","52","52","0","0","NA","0","52","0","52","NA","0","52","52","12/07/16 14:51:06","The main experiment item","yes","m","W:\Sussex\Consciousness and control\Exp 1 - stroop suggestion and PCE\Methods\Palfi_script","no","mono","no","18","no","black","no","Ok","NA","no","Female","768","legacy","C:/Users/User/Dropbox/Sussex/Consciousness and control/Exp 1 - stroop suggestion and PCE/Methods/Palfi_script/laptop_size/subject-9_IC.csv","legacy","Interactive Ising","3.0.2","0","m","m","space","NA","614","614","6227","NA","2","legacy","1024","2","48000","-16","experiment","9","odd","NA","261562","76372","139235","67899","312380","311807","312345","312998","313987","255333","NA","255334","54643","313235","311842","NA","3912","NA","NA","231878","3912","314437","NA","142431","311804","312380","Stroop IC","55","123667","57","yes","1366","GREEN"
"48","96.5517241379","yes","96.5517241379","21","2152","2152","#ffffff","no","I","v;b;n;m","legacy","I have read and understood the information shown above","legacy","legacy","blue","0","inc","uniform","1","1","1","NA","0","0","0","0","0","53","53","53","53","53","0","0","5","0","53","53","0","0","NA","0","53","0","53","NA","0","53","53","12/07/16 14:51:06","The main experiment item","yes","b","W:\Sussex\Consciousness and control\Exp 1 - stroop suggestion and PCE\Methods\Palfi_script","no","mono","no","18","no","black","no","Ok","NA","no","Female","768","legacy","C:/Users/User/Dropbox/Sussex/Consciousness and control/Exp 1 - stroop suggestion and PCE/Methods/Palfi_script/laptop_size/subject-9_IC.csv","legacy","Interactive Ising","3.0.2","0","b","b","space","NA","1150","1150","6227","NA","2","legacy","1024","2","48000","-16","experiment","9","odd","NA","261562","76372","139235","67899","315177","314605","315142","316329","317318","255333","NA","255334","54643","316566","314640","NA","3912","NA","NA","231878","3912","317768","NA","142431","314603","315177","Stroop IC","56","124817","58","yes","1366","YELLOW"
"7","96.6101694915","yes","96.6101694915","21","2124","2124","#ffffff","no","I","v;b;n;m","legacy","I have read and understood the information shown above","legacy","legacy","red","0","inc","uniform","1","1","1","NA","0","0","0","0","0","54","54","54","54","54","0","0","5","0","54","54","0","0","NA","0","54","0","54","NA","0","54","54","12/07/16 14:51:06","The main experiment item","yes","v","W:\Sussex\Consciousness and control\Exp 1 - stroop suggestion and PCE\Methods\Palfi_script","no","mono","no","18","no","black","no","Ok","NA","no","Female","768","legacy","C:/Users/User/Dropbox/Sussex/Consciousness and control/Exp 1 - stroop suggestion and PCE/Methods/Palfi_script/laptop_size/subject-9_IC.csv","legacy","Interactive Ising","3.0.2","0","v","v","space","NA","524","524","6227","NA","2","legacy","1024","2","48000","-16","experiment","9","odd","NA","261562","76372","139235","67899","318535","317963","318500","319062","320050","255333","NA","255334","54643","319298","317998","NA","3912","NA","NA","231878","3912","320500","NA","142431","317961","318535","Stroop IC","57","125341","59","yes","1366","BLUE"
"73","96.6666666667","yes","96.6666666667","21","2106","2106","#ffffff","no","I","v;b;n;m","legacy","I have read and understood the information shown above","legacy","legacy","#ffef36","0","inc","uniform","1","1","1","NA","0","0","0","0","0","55","55","55","55","55","0","0","5","0","55","55","0","0","NA","0","55","0","55","NA","0","55","55","12/07/16 14:51:06","The main experiment item","yes","m","W:\Sussex\Consciousness and control\Exp 1 - stroop suggestion and PCE\Methods\Palfi_script","no","mono","no","18","no","black","no","Ok","NA","no","Female","768","legacy","C:/Users/User/Dropbox/Sussex/Consciousness and control/Exp 1 - stroop suggestion and PCE/Methods/Palfi_script/laptop_size/subject-9_IC.csv","legacy","Interactive Ising","3.0.2","0","m","m","space","NA","1036","1036","6227","NA","2","legacy","1024","2","48000","-16","experiment","9","odd","NA","261562","76372","139235","67899","321287","320715","321252","322328","323316","255333","NA","255334","54643","322564","320750","NA","3912","NA","NA","231878","3912","323766","NA","142431","320713","321287","Stroop IC","58","126377","60","yes","1366","RED"
"49","96.7213114754","yes","96.7213114754","21","2083","2083","#ffffff","no","I","v;b;n;m","legacy","I have read and understood the information shown above","legacy","legacy","green","0","inc","uniform","1","1","1","NA","0","0","0","0","0","56","56","56","56","56","0","0","5","0","56","56","0","0","NA","0","56","0","56","NA","0","56","56","12/07/16 14:51:06","The main experiment item","yes","n","W:\Sussex\Consciousness and control\Exp 1 - stroop suggestion and PCE\Methods\Palfi_script","no","mono","no","18","no","black","no","Ok","NA","no","Female","768","legacy","C:/Users/User/Dropbox/Sussex/Consciousness and control/Exp 1 - stroop suggestion and PCE/Methods/Palfi_script/laptop_size/subject-9_IC.csv","legacy","Interactive Ising","3.0.2","0","n","n","space","NA","716","716","6227","NA","2","legacy","1024","2","48000","-16","experiment","9","odd","NA","261562","76372","139235","67899","324520","323948","324485","325239","326227","255333","NA","255334","54643","325475","323983","NA","3912","NA","NA","231878","3912","326677","NA","142431","323945","324520","Stroop IC","59","127093","61","yes","1366","RED"
"50","96.7741935484","yes","96.7741935484","21","2058","2058","#ffffff","no","I","v;b;n;m","legacy","I have read and understood the information shown above","legacy","legacy","green","0","inc","uniform","1","1","1","NA","0","0","0","0","0","57","57","57","57","57","0","0","5","0","57","57","0","0","NA","0","57","0","57","NA","0","57","57","12/07/16 14:51:06","The main experiment item","yes","n","W:\Sussex\Consciousness and control\Exp 1 - stroop suggestion and PCE\Methods\Palfi_script","no","mono","no","18","no","black","no","Ok","NA","no","Female","768","legacy","C:/Users/User/Dropbox/Sussex/Consciousness and control/Exp 1 - stroop suggestion and PCE/Methods/Palfi_script/laptop_size/subject-9_IC.csv","legacy","Interactive Ising","3.0.2","0","n","n","space","NA","559","559","6227","NA","2","legacy","1024","2","48000","-16","experiment","9","odd","NA","261562","76372","139235","67899","327445","326872","327410","328007","328995","255333","NA","255334","54643","328243","326907","NA","3912","NA","NA","231878","3912","329445","NA","142431","326870","327445","Stroop IC","60","127652","62","yes","1366","RED"
"16","96.8253968254","yes","96.8253968254","21","2040","2040","#ffffff","no","I","v;b;n;m","legacy","I have read and understood the information shown above","legacy","legacy","red","0","inc","uniform","1","1","1","NA","0","0","0","0","0","58","58","58","58","58","0","0","5","0","58","58","0","0","NA","0","58","0","58","NA","0","58","58","12/07/16 14:51:06","The main experiment item","yes","v","W:\Sussex\Consciousness and control\Exp 1 - stroop suggestion and PCE\Methods\Palfi_script","no","mono","no","18","no","black","no","Ok","NA","no","Female","768","legacy","C:/Users/User/Dropbox/Sussex/Consciousness and control/Exp 1 - stroop suggestion and PCE/Methods/Palfi_script/laptop_size/subject-9_IC.csv","legacy","Interactive Ising","3.0.2","0","v","v","space","NA","877","877","6227","NA","2","legacy","1024","2","48000","-16","experiment","9","odd","NA","261562","76372","139235","67899","330217","329645","330182","331099","332088","255333","NA","255334","54643","331335","329680","NA","3912","NA","NA","231878","3912","332538","NA","142431","329643","330217","Stroop IC","61","128529","63","yes","1366","GREEN"
"105","96.875","yes","96.875","21","2027","2027","#ffffff","no","I","v;b;n;m","legacy","I have read and understood the information shown above","legacy","legacy","green","0","con","uniform","1","1","1","NA","0","0","0","0","0","59","59","59","59","59","0","0","5","0","59","59","0","0","NA","0","59","0","59","NA","0","59","59","12/07/16 14:51:06","The main experiment item","yes","n","W:\Sussex\Consciousness and control\Exp 1 - stroop suggestion and PCE\Methods\Palfi_script","no","mono","no","18","no","black","no","Ok","NA","no","Female","768","legacy","C:/Users/User/Dropbox/Sussex/Consciousness and control/Exp 1 - stroop suggestion and PCE/Methods/Palfi_script/laptop_size/subject-9_IC.csv","legacy","Interactive Ising","3.0.2","0","n","n","space","NA","1232","1232","6227","NA","2","legacy","1024","2","48000","-16","experiment","9","odd","NA","261562","76372","139235","67899","333329","332757","333294","334564","335552","255333","NA","255334","54643","334800","332792","NA","3912","NA","NA","231878","3912","336002","NA","142431","332755","333329","Stroop IC","62","129761","64","yes","1366","GREEN"
"112","96.9230769231","yes","96.9230769231","21","2009","2009","#ffffff","no","I","v;b;n;m","legacy","I have read and understood the information shown above","legacy","legacy","blue","0","neutral","uniform","1","1","1","NA","0","0","0","0","0","60","60","60","60","60","0","0","5","0","60","60","0","0","NA","0","60","0","60","NA","0","60","60","12/07/16 14:51:06","The main experiment item","yes","b","W:\Sussex\Consciousness and control\Exp 1 - stroop suggestion and PCE\Methods\Palfi_script","no","mono","no","18","no","black","no","Ok","NA","no","Female","768","legacy","C:/Users/User/Dropbox/Sussex/Consciousness and control/Exp 1 - stroop suggestion and PCE/Methods/Palfi_script/laptop_size/subject-9_IC.csv","legacy","Interactive Ising","3.0.2","0","b","b","space","NA","835","835","6227","NA","2","legacy","1024","2","48000","-16","experiment","9","odd","NA","261562","76372","139235","67899","336841","336269","336806","337680","338669","255333","NA","255334","54643","337917","336304","NA","3912","NA","NA","231878","3912","339119","NA","142431","336266","336841","Stroop IC","63","130596","65","yes","1366","LOT"
"55","96.9696969697","yes","96.9696969697","21","1995","1995","#ffffff","no","I","v;b;n;m","legacy","I have read and understood the information shown above","legacy","legacy","green","0","inc","uniform","1","1","1","NA","0","0","0","0","0","61","61","61","61","61","0","0","5","0","61","61","0","0","NA","0","61","0","61","NA","0","61","61","12/07/16 14:51:06","The main experiment item","yes","n","W:\Sussex\Consciousness and control\Exp 1 - stroop suggestion and PCE\Methods\Palfi_script","no","mono","no","18","no","black","no","Ok","NA","no","Female","768","legacy","C:/Users/User/Dropbox/Sussex/Consciousness and control/Exp 1 - stroop suggestion and PCE/Methods/Palfi_script/laptop_size/subject-9_IC.csv","legacy","Interactive Ising","3.0.2","0","n","n","space","NA","1134","1134","6227","NA","2","legacy","1024","2","48000","-16","experiment","9","odd","NA","261562","76372","139235","67899","339844","339271","339809","340982","341971","255333","NA","255334","54643","341219","339306","NA","3912","NA","NA","231878","3912","342421","NA","142431","339269","339844","Stroop IC","64","131730","66","yes","1366","RED"
"117","97.0149253731","yes","97.0149253731","21","1977","1977","#ffffff","no","I","v;b;n;m","legacy","I have read and understood the information shown above","legacy","legacy","green","0","neutral","uniform","1","1","1","NA","0","0","0","0","0","62","62","62","62","62","0","0","5","0","62","62","0","0","NA","0","62","0","62","NA","0","62","62","12/07/16 14:51:06","The main experiment item","yes","n","W:\Sussex\Consciousness and control\Exp 1 - stroop suggestion and PCE\Methods\Palfi_script","no","mono","no","18","no","black","no","Ok","NA","no","Female","768","legacy","C:/Users/User/Dropbox/Sussex/Consciousness and control/Exp 1 - stroop suggestion and PCE/Methods/Palfi_script/laptop_size/subject-9_IC.csv","legacy","Interactive Ising","3.0.2","0","n","n","space","NA","770","770","6227","NA","2","legacy","1024","2","48000","-16","experiment","9","odd","NA","261562","76372","139235","67899","343316","342744","343281","344090","345078","255333","NA","255334","54643","344326","342779","NA","3912","NA","NA","231878","3912","345528","NA","142431","342741","343316","Stroop IC","65","132500","67","yes","1366","FLOWER"
"23","97.0588235294","yes","97.0588235294","21","1959","1959","#ffffff","no","I","v;b;n;m","legacy","I have read and understood the information shown above","legacy","legacy","red","0","inc","uniform","1","1","1","NA","0","0","0","0","0","63","63","63","63","63","0","0","5","0","63","63","0","0","NA","0","63","0","63","NA","0","63","63","12/07/16 14:51:06","The main experiment item","yes","v","W:\Sussex\Consciousness and control\Exp 1 - stroop suggestion and PCE\Methods\Palfi_script","no","mono","no","18","no","black","no","Ok","NA","no","Female","768","legacy","C:/Users/User/Dropbox/Sussex/Consciousness and control/Exp 1 - stroop suggestion and PCE/Methods/Palfi_script/laptop_size/subject-9_IC.csv","legacy","Interactive Ising","3.0.2","0","v","v","space","NA","742","742","6227","NA","2","legacy","1024","2","48000","-16","experiment","9","odd","NA","261562","76372","139235","67899","346382","345810","346347","347127","348115","255333","NA","255334","54643","347363","345845","NA","3912","NA","NA","231878","3912","348565","NA","142431","345808","346382","Stroop IC","66","133242","68","yes","1366","YELLOW"
"44","95.652173913","yes","95.652173913","21","1938","1938","#ffffff","no","I","v;b;n;m","legacy","I have read and understood the information shown above","legacy","legacy","blue","0","inc","uniform","0","0","1","NA","0","0","0","0","0","64","64","64","64","64","0","0","5","0","64","64","0","0","NA","0","64","0","64","NA","0","64","64","12/07/16 14:51:06","The main experiment item","yes","b","W:\Sussex\Consciousness and control\Exp 1 - stroop suggestion and PCE\Methods\Palfi_script","no","mono","no","18","no","black","no","Ok","NA","no","Female","768","legacy","C:/Users/User/Dropbox/Sussex/Consciousness and control/Exp 1 - stroop suggestion and PCE/Methods/Palfi_script/laptop_size/subject-9_IC.csv","legacy","Interactive Ising","3.0.2","0","v","v","space","NA","543","543","6227","NA","2","legacy","1024","2","48000","-16","experiment","9","odd","NA","261562","76372","139235","67899","349357","348785","349322","349903","350891","255333","NA","255334","54643","347363","348820","NA","3912","NA","NA","350139","3912","351341","NA","142431","348783","349357","Stroop IC","66","133785","69","yes","1366","YELLOW"
"19","95.7142857143","yes","95.7142857143","21","1930","1930","#ffffff","no","I","v;b;n;m","legacy","I have read and understood the information shown above","legacy","legacy","red","0","inc","uniform","1","1","1","NA","0","0","0","0","0","65","65","65","65","65","0","0","5","0","65","65","0","0","NA","0","65","0","65","NA","0","65","65","12/07/16 14:51:06","The main experiment item","yes","v","W:\Sussex\Consciousness and control\Exp 1 - stroop suggestion and PCE\Methods\Palfi_script","no","mono","no","18","no","black","no","Ok","NA","no","Female","768","legacy","C:/Users/User/Dropbox/Sussex/Consciousness and control/Exp 1 - stroop suggestion and PCE/Methods/Palfi_script/laptop_size/subject-9_IC.csv","legacy","Interactive Ising","3.0.2","0","v","v","space","NA","1380","1380","6227","NA","2","legacy","1024","2","48000","-16","experiment","9","odd","NA","261562","76372","139235","67899","352076","351504","352041","353459","354447","255333","NA","255334","54643","353695","351539","NA","3912","NA","NA","350139","3912","354897","NA","142431","351501","352076","Stroop IC","67","135165","70","yes","1366","YELLOW"
"83","95.7746478873","yes","95.7746478873","21","1920","1920","#ffffff","no","I","v;b;n;m","legacy","I have read and understood the information shown above","legacy","legacy","#ffef36","0","inc","uniform","1","1","1","NA","0","0","0","0","0","66","66","66","66","66","0","0","5","0","66","66","0","0","NA","0","66","0","66","NA","0","66","66","12/07/16 14:51:06","The main experiment item","yes","m","W:\Sussex\Consciousness and control\Exp 1 - stroop suggestion and PCE\Methods\Palfi_script","no","mono","no","18","no","black","no","Ok","NA","no","Female","768","legacy","C:/Users/User/Dropbox/Sussex/Consciousness and control/Exp 1 - stroop suggestion and PCE/Methods/Palfi_script/laptop_size/subject-9_IC.csv","legacy","Interactive Ising","3.0.2","0","m","m","space","NA","1170","1170","6227","NA","2","legacy","1024","2","48000","-16","experiment","9","odd","NA","261562","76372","139235","67899","355699","355127","355664","356872","357862","255333","NA","255334","54643","357108","355162","NA","3912","NA","NA","350139","3912","358312","NA","142431","355125","355699","Stroop IC","68","136335","71","yes","1366","BLUE"
"74","95.8333333333","yes","95.8333333333","21","1901","1901","#ffffff","no","I","v;b;n;m","legacy","I have read and understood the information shown above","legacy","legacy","#ffef36","0","inc","uniform","1","1","1","NA","0","0","0","0","0","67","67","67","67","67","0","0","5","0","67","67","0","0","NA","0","67","0","67","NA","0","67","67","12/07/16 14:51:06","The main experiment item","yes","m","W:\Sussex\Consciousness and control\Exp 1 - stroop suggestion and PCE\Methods\Palfi_script","no","mono","no","18","no","black","no","Ok","NA","no","Female","768","legacy","C:/Users/User/Dropbox/Sussex/Consciousness and control/Exp 1 - stroop suggestion and PCE/Methods/Palfi_script/laptop_size/subject-9_IC.csv","legacy","Interactive Ising","3.0.2","0","m","m","space","NA","568","568","6227","NA","2","legacy","1024","2","48000","-16","experiment","9","odd","NA","261562","76372","139235","67899","359024","358451","358989","359595","360583","255333","NA","255334","54643","359831","358487","NA","3912","NA","NA","350139","3912","361033","NA","142431","358448","359024","Stroop IC","69","136903","72","yes","1366","RED"
"84","95.8904109589","yes","95.8904109589","21","1883","1883","#ffffff","no","I","v;b;n;m","legacy","I have read and understood the information shown above","legacy","legacy","#ffef36","0","inc","uniform","1","1","1","NA","0","0","0","0","0","68","68","68","68","68","0","0","5","0","68","68","0","0","NA","0","68","0","68","NA","0","68","68","12/07/16 14:51:06","The main experiment item","yes","m","W:\Sussex\Consciousness and control\Exp 1 - stroop suggestion and PCE\Methods\Palfi_script","no","mono","no","18","no","black","no","Ok","NA","no","Female","768","legacy","C:/Users/User/Dropbox/Sussex/Consciousness and control/Exp 1 - stroop suggestion and PCE/Methods/Palfi_script/laptop_size/subject-9_IC.csv","legacy","Interactive Ising","3.0.2","0","m","m","space","NA","568","568","6227","NA","2","legacy","1024","2","48000","-16","experiment","9","odd","NA","261562","76372","139235","67899","361788","361216","361753","362359","363347","255333","NA","255334","54643","362595","361251","NA","3912","NA","NA","350139","3912","363797","NA","142431","361214","361788","Stroop IC","70","137471","73","yes","1366","BLUE"
"70","95.9459459459","yes","95.9459459459","21","1867","1867","#ffffff","no","I","v;b;n;m","legacy","I have read and understood the information shown above","legacy","legacy","green","0","inc","uniform","1","1","1","NA","0","0","0","0","0","69","69","69","69","69","0","0","5","0","69","69","0","0","NA","0","69","0","69","NA","0","69","69","12/07/16 14:51:06","The main experiment item","yes","n","W:\Sussex\Consciousness and control\Exp 1 - stroop suggestion and PCE\Methods\Palfi_script","no","mono","no","18","no","black","no","Ok","NA","no","Female","768","legacy","C:/Users/User/Dropbox/Sussex/Consciousness and control/Exp 1 - stroop suggestion and PCE/Methods/Palfi_script/laptop_size/subject-9_IC.csv","legacy","Interactive Ising","3.0.2","0","n","n","space","NA","748","748","6227","NA","2","legacy","1024","2","48000","-16","experiment","9","odd","NA","261562","76372","139235","67899","364515","363943","364480","365267","366260","255333","NA","255334","54643","365503","363978","NA","3912","NA","NA","350139","3912","366710","NA","142431","363941","364515","Stroop IC","71","138219","74","yes","1366","YELLOW"
"100","96","yes","96","21","1855","1855","#ffffff","no","I","v;b;n;m","legacy","I have read and understood the information shown above","legacy","legacy","blue","0","con","uniform","1","1","1","NA","0","0","0","0","0","70","70","70","70","70","0","0","5","0","70","70","0","0","NA","0","70","0","70","NA","0","70","70","12/07/16 14:51:06","The main experiment item","yes","b","W:\Sussex\Consciousness and control\Exp 1 - stroop suggestion and PCE\Methods\Palfi_script","no","mono","no","18","no","black","no","Ok","NA","no","Female","768","legacy","C:/Users/User/Dropbox/Sussex/Consciousness and control/Exp 1 - stroop suggestion and PCE/Methods/Palfi_script/laptop_size/subject-9_IC.csv","legacy","Interactive Ising","3.0.2","0","b","b","space","NA","973","973","6227","NA","2","legacy","1024","2","48000","-16","experiment","9","odd","NA","261562","76372","139235","67899","367578","367006","367543","368555","369545","255333","NA","255334","54643","368793","367041","NA","3912","NA","NA","350139","3912","369995","NA","142431","367003","367578","Stroop IC","72","139192","75","yes","1366","BLUE"
"8","96.0526315789","yes","96.0526315789","21","1840","1840","#ffffff","no","I","v;b;n;m","legacy","I have read and understood the information shown above","legacy","legacy","red","0","inc","uniform","1","1","1","NA","0","0","0","0","0","71","71","71","71","71","0","0","5","0","71","71","0","0","NA","0","71","0","71","NA","0","71","71","12/07/16 14:51:06","The main experiment item","yes","v","W:\Sussex\Consciousness and control\Exp 1 - stroop suggestion and PCE\Methods\Palfi_script","no","mono","no","18","no","black","no","Ok","NA","no","Female","768","legacy","C:/Users/User/Dropbox/Sussex/Consciousness and control/Exp 1 - stroop suggestion and PCE/Methods/Palfi_script/laptop_size/subject-9_IC.csv","legacy","Interactive Ising","3.0.2","0","v","v","space","NA","659","659","6227","NA","2","legacy","1024","2","48000","-16","experiment","9","odd","NA","261562","76372","139235","67899","370781","370209","370746","371443","372432","255333","NA","255334","54643","371680","370244","NA","3912","NA","NA","350139","3912","372882","NA","142431","370207","370781","Stroop IC","73","139851","76","yes","1366","BLUE"
"12","96.1038961039","yes","96.1038961039","21","1822","1822","#ffffff","no","I","v;b;n;m","legacy","I have read and understood the information shown above","legacy","legacy","red","0","inc","uniform","1","1","1","NA","0","0","0","0","0","72","72","72","72","72","0","0","5","0","72","72","0","0","NA","0","72","0","72","NA","0","72","72","12/07/16 14:51:06","The main experiment item","yes","v","W:\Sussex\Consciousness and control\Exp 1 - stroop suggestion and PCE\Methods\Palfi_script","no","mono","no","18","no","black","no","Ok","NA","no","Female","768","legacy","C:/Users/User/Dropbox/Sussex/Consciousness and control/Exp 1 - stroop suggestion and PCE/Methods/Palfi_script/laptop_size/subject-9_IC.csv","legacy","Interactive Ising","3.0.2","0","v","v","space","NA","519","519","6227","NA","2","legacy","1024","2","48000","-16","experiment","9","odd","NA","261562","76372","139235","67899","373638","373066","373603","374160","375149","255333","NA","255334","54643","374396","373101","NA","3912","NA","NA","350139","3912","375599","NA","142431","373064","373638","Stroop IC","74","140370","77","yes","1366","GREEN"
"17","96.1538461538","yes","96.1538461538","21","1806","1806","#ffffff","no","I","v;b;n;m","legacy","I have read and understood the information shown above","legacy","legacy","red","0","inc","uniform","1","1","1","NA","0","0","0","0","0","73","73","73","73","73","0","0","5","0","73","73","0","0","NA","0","73","0","73","NA","0","73","73","12/07/16 14:51:06","The main experiment item","yes","v","W:\Sussex\Consciousness and control\Exp 1 - stroop suggestion and PCE\Methods\Palfi_script","no","mono","no","18","no","black","no","Ok","NA","no","Female","768","legacy","C:/Users/User/Dropbox/Sussex/Consciousness and control/Exp 1 - stroop suggestion and PCE/Methods/Palfi_script/laptop_size/subject-9_IC.csv","legacy","Interactive Ising","3.0.2","0","v","v","space","NA","566","566","6227","NA","2","legacy","1024","2","48000","-16","experiment","9","odd","NA","261562","76372","139235","67899","376437","375865","376402","377006","377994","255333","NA","255334","54643","377242","375900","NA","3912","NA","NA","350139","3912","378444","NA","142431","375862","376437","Stroop IC","75","140936","78","yes","1366","YELLOW"
"14","96.2025316456","yes","96.2025316456","21","1791","1791","#ffffff","no","I","v;b;n;m","legacy","I have read and understood the information shown above","legacy","legacy","red","0","inc","uniform","1","1","1","NA","0","0","0","0","0","74","74","74","74","74","0","0","5","0","74","74","0","0","NA","0","74","0","74","NA","0","74","74","12/07/16 14:51:06","The main experiment item","yes","v","W:\Sussex\Consciousness and control\Exp 1 - stroop suggestion and PCE\Methods\Palfi_script","no","mono","no","18","no","black","no","Ok","NA","no","Female","768","legacy","C:/Users/User/Dropbox/Sussex/Consciousness and control/Exp 1 - stroop suggestion and PCE/Methods/Palfi_script/laptop_size/subject-9_IC.csv","legacy","Interactive Ising","3.0.2","0","v","v","space","NA","578","578","6227","NA","2","legacy","1024","2","48000","-16","experiment","9","odd","NA","261562","76372","139235","67899","379152","378580","379117","379733","380721","255333","NA","255334","54643","379969","378615","NA","3912","NA","NA","350139","3912","381171","NA","142431","378578","379152","Stroop IC","76","141514","79","yes","1366","GREEN"
"108","95","yes","95","21","1780","1780","#ffffff","no","I","v;b;n;m","legacy","I have read and understood the information shown above","legacy","legacy","#ffef36","0","con","uniform","0","0","1","NA","0","0","0","0","0","75","75","75","75","75","0","0","5","0","75","75","0","0","NA","0","75","0","75","NA","0","75","75","12/07/16 14:51:06","The main experiment item","yes","m","W:\Sussex\Consciousness and control\Exp 1 - stroop suggestion and PCE\Methods\Palfi_script","no","mono","no","18","no","black","no","Ok","NA","no","Female","768","legacy","C:/Users/User/Dropbox/Sussex/Consciousness and control/Exp 1 - stroop suggestion and PCE/Methods/Palfi_script/laptop_size/subject-9_IC.csv","legacy","Interactive Ising","3.0.2","0","n","n","space","NA","897","897","6227","NA","2","legacy","1024","2","48000","-16","experiment","9","odd","NA","261562","76372","139235","67899","381954","381382","381919","382854","383842","255333","NA","255334","54643","379969","381417","NA","3912","NA","NA","383090","3912","384292","NA","142431","381379","381954","Stroop IC","76","142411","80","yes","1366","YELLOW"
"82","93.8271604938","yes","93.8271604938","21","1766","1766","#ffffff","no","I","v;b;n;m","legacy","I have read and understood the information shown above","legacy","legacy","#ffef36","0","inc","uniform","0","0","1","NA","0","0","0","0","0","76","76","76","76","76","0","0","5","0","76","76","0","0","NA","0","76","0","76","NA","0","76","76","12/07/16 14:51:06","The main experiment item","yes","m","W:\Sussex\Consciousness and control\Exp 1 - stroop suggestion and PCE\Methods\Palfi_script","no","mono","no","18","no","black","no","Ok","NA","no","Female","768","legacy","C:/Users/User/Dropbox/Sussex/Consciousness and control/Exp 1 - stroop suggestion and PCE/Methods/Palfi_script/laptop_size/subject-9_IC.csv","legacy","Interactive Ising","3.0.2","0","n","n","space","NA","679","679","6227","NA","2","legacy","1024","2","48000","-16","experiment","9","odd","NA","261562","76372","139235","67899","385318","384745","385283","386000","386988","255333","NA","255334","54643","379969","384781","NA","3912","NA","NA","386236","3912","387438","NA","142431","384742","385318","Stroop IC","76","143090","81","yes","1366","BLUE"
"81","93.9024390244","yes","93.9024390244","21","1752","1752","#ffffff","no","I","v;b;n;m","legacy","I have read and understood the information shown above","legacy","legacy","#ffef36","0","inc","uniform","1","1","1","NA","0","0","0","0","0","77","77","77","77","77","0","0","5","0","77","77","0","0","NA","0","77","0","77","NA","0","77","77","12/07/16 14:51:06","The main experiment item","yes","m","W:\Sussex\Consciousness and control\Exp 1 - stroop suggestion and PCE\Methods\Palfi_script","no","mono","no","18","no","black","no","Ok","NA","no","Female","768","legacy","C:/Users/User/Dropbox/Sussex/Consciousness and control/Exp 1 - stroop suggestion and PCE/Methods/Palfi_script/laptop_size/subject-9_IC.csv","legacy","Interactive Ising","3.0.2","0","m","m","space","NA","628","628","6227","NA","2","legacy","1024","2","48000","-16","experiment","9","odd","NA","261562","76372","139235","67899","388180","387608","388145","388811","389799","255333","NA","255334","54643","389047","387643","NA","3912","NA","NA","386236","3912","390249","NA","142431","387606","388180","Stroop IC","77","143718","82","yes","1366","BLUE"
"68","93.9759036145","yes","93.9759036145","21","1739","1739","#ffffff","no","I","v;b;n;m","legacy","I have read and understood the information shown above","legacy","legacy","green","0","inc","uniform","1","1","1","NA","0","0","0","0","0","78","78","78","78","78","0","0","5","0","78","78","0","0","NA","0","78","0","78","NA","0","78","78","12/07/16 14:51:06","The main experiment item","yes","n","W:\Sussex\Consciousness and control\Exp 1 - stroop suggestion and PCE\Methods\Palfi_script","no","mono","no","18","no","black","no","Ok","NA","no","Female","768","legacy","C:/Users/User/Dropbox/Sussex/Consciousness and control/Exp 1 - stroop suggestion and PCE/Methods/Palfi_script/laptop_size/subject-9_IC.csv","legacy","Interactive Ising","3.0.2","0","n","n","space","NA","653","653","6227","NA","2","legacy","1024","2","48000","-16","experiment","9","odd","NA","261562","76372","139235","67899","391051","390477","391016","391707","392696","255333","NA","255334","54643","391944","390512","NA","3912","NA","NA","386236","3912","393146","NA","142431","390474","391051","Stroop IC","78","144371","83","yes","1366","YELLOW"
"102","94.0476190476","yes","94.0476190476","21","1724","1724","#ffffff","no","I","v;b;n;m","legacy","I have read and understood the information shown above","legacy","legacy","blue","0","con","uniform","1","1","1","NA","0","0","0","0","0","79","79","79","79","79","0","0","5","0","79","79","0","0","NA","0","79","0","79","NA","0","79","79","12/07/16 14:51:06","The main experiment item","yes","b","W:\Sussex\Consciousness and control\Exp 1 - stroop suggestion and PCE\Methods\Palfi_script","no","mono","no","18","no","black","no","Ok","NA","no","Female","768","legacy","C:/Users/User/Dropbox/Sussex/Consciousness and control/Exp 1 - stroop suggestion and PCE/Methods/Palfi_script/laptop_size/subject-9_IC.csv","legacy","Interactive Ising","3.0.2","0","b","b","space","NA","478","478","6227","NA","2","legacy","1024","2","48000","-16","experiment","9","odd","NA","261562","76372","139235","67899","393870","393298","393835","394351","395339","255333","NA","255334","54643","394587","393333","NA","3912","NA","NA","386236","3912","395789","NA","142431","393296","393870","Stroop IC","79","144849","84","yes","1366","BLUE"
"2","94.1176470588","yes","94.1176470588","21","1710","1710","#ffffff","no","I","v;b;n;m","legacy","I have read and understood the information shown above","legacy","legacy","red","0","inc","uniform","1","1","1","NA","0","0","0","0","0","80","80","80","80","80","0","0","5","0","80","80","0","0","NA","0","80","0","80","NA","0","80","80","12/07/16 14:51:06","The main experiment item","yes","v","W:\Sussex\Consciousness and control\Exp 1 - stroop suggestion and PCE\Methods\Palfi_script","no","mono","no","18","no","black","no","Ok","NA","no","Female","768","legacy","C:/Users/User/Dropbox/Sussex/Consciousness and control/Exp 1 - stroop suggestion and PCE/Methods/Palfi_script/laptop_size/subject-9_IC.csv","legacy","Interactive Ising","3.0.2","0","v","v","space","NA","564","564","6227","NA","2","legacy","1024","2","48000","-16","experiment","9","odd","NA","261562","76372","139235","67899","396543","395971","396508","397110","398098","255333","NA","255334","54643","397346","396006","NA","3912","NA","NA","386236","3912","398548","NA","142431","395968","396543","Stroop IC","80","145413","85","yes","1366","BLUE"
"103","94.1860465116","yes","94.1860465116","21","1697","1697","#ffffff","no","I","v;b;n;m","legacy","I have read and understood the information shown above","legacy","legacy","green","0","con","uniform","1","1","1","NA","0","0","0","0","0","81","81","81","81","81","0","0","5","0","81","81","0","0","NA","0","81","0","81","NA","0","81","81","12/07/16 14:51:06","The main experiment item","yes","n","W:\Sussex\Consciousness and control\Exp 1 - stroop suggestion and PCE\Methods\Palfi_script","no","mono","no","18","no","black","no","Ok","NA","no","Female","768","legacy","C:/Users/User/Dropbox/Sussex/Consciousness and control/Exp 1 - stroop suggestion and PCE/Methods/Palfi_script/laptop_size/subject-9_IC.csv","legacy","Interactive Ising","3.0.2","0","n","n","space","NA","610","610","6227","NA","2","legacy","1024","2","48000","-16","experiment","9","odd","NA","261562","76372","139235","67899","399269","398697","399234","399882","400871","255333","NA","255334","54643","400118","398732","NA","3912","NA","NA","386236","3912","401321","NA","142431","398695","399269","Stroop IC","81","146023","86","yes","1366","GREEN"
"10","94.2528735632","yes","94.2528735632","21","1686","1686","#ffffff","no","I","v;b;n;m","legacy","I have read and understood the information shown above","legacy","legacy","red","0","inc","uniform","1","1","1","NA","0","0","0","0","0","82","82","82","82","82","0","0","5","0","82","82","0","0","NA","0","82","0","82","NA","0","82","82","12/07/16 14:51:06","The main experiment item","yes","v","W:\Sussex\Consciousness and control\Exp 1 - stroop suggestion and PCE\Methods\Palfi_script","no","mono","no","18","no","black","no","Ok","NA","no","Female","768","legacy","C:/Users/User/Dropbox/Sussex/Consciousness and control/Exp 1 - stroop suggestion and PCE/Methods/Palfi_script/laptop_size/subject-9_IC.csv","legacy","Interactive Ising","3.0.2","0","v","v","space","NA","698","698","6227","NA","2","legacy","1024","2","48000","-16","experiment","9","odd","NA","261562","76372","139235","67899","402106","401533","402070","402807","403795","255333","NA","255334","54643","403043","401568","NA","3912","NA","NA","386236","3912","404245","NA","142431","401531","402106","Stroop IC","82","146721","87","yes","1366","GREEN"
"25","94.3181818182","yes","94.3181818182","21","1673","1673","#ffffff","no","I","v;b;n;m","legacy","I have read and understood the information shown above","legacy","legacy","blue","0","inc","uniform","1","1","1","NA","0","0","0","0","0","83","83","83","83","83","0","0","5","0","83","83","0","0","NA","0","83","0","83","NA","0","83","83","12/07/16 14:51:06","The main experiment item","yes","b","W:\Sussex\Consciousness and control\Exp 1 - stroop suggestion and PCE\Methods\Palfi_script","no","mono","no","18","no","black","no","Ok","NA","no","Female","768","legacy","C:/Users/User/Dropbox/Sussex/Consciousness and control/Exp 1 - stroop suggestion and PCE/Methods/Palfi_script/laptop_size/subject-9_IC.csv","legacy","Interactive Ising","3.0.2","0","b","b","space","NA","509","509","6227","NA","2","legacy","1024","2","48000","-16","experiment","9","odd","NA","261562","76372","139235","67899","405086","404513","405051","405599","406587","255333","NA","255334","54643","405835","404549","NA","3912","NA","NA","386236","3912","407037","NA","142431","404511","405086","Stroop IC","83","147230","88","yes","1366","RED"
"46","94.3820224719","yes","94.3820224719","21","1660","1660","#ffffff","no","I","v;b;n;m","legacy","I have read and understood the information shown above","legacy","legacy","blue","0","inc","uniform","1","1","1","NA","0","0","0","0","0","84","84","84","84","84","0","0","5","0","84","84","0","0","NA","0","84","0","84","NA","0","84","84","12/07/16 14:51:06","The main experiment item","yes","b","W:\Sussex\Consciousness and control\Exp 1 - stroop suggestion and PCE\Methods\Palfi_script","no","mono","no","18","no","black","no","Ok","NA","no","Female","768","legacy","C:/Users/User/Dropbox/Sussex/Consciousness and control/Exp 1 - stroop suggestion and PCE/Methods/Palfi_script/laptop_size/subject-9_IC.csv","legacy","Interactive Ising","3.0.2","0","b","b","space","NA","566","566","6227","NA","2","legacy","1024","2","48000","-16","experiment","9","odd","NA","261562","76372","139235","67899","407764","407192","407729","408333","409321","255333","NA","255334","54643","408569","407227","NA","3912","NA","NA","386236","3912","409771","NA","142431","407189","407764","Stroop IC","84","147796","89","yes","1366","YELLOW"
"86","94.4444444444","yes","94.4444444444","21","1652","1652","#ffffff","no","I","v;b;n;m","legacy","I have read and understood the information shown above","legacy","legacy","#ffef36","0","inc","uniform","1","1","1","NA","0","0","0","0","0","85","85","85","85","85","0","0","5","0","85","85","0","0","NA","0","85","0","85","NA","0","85","85","12/07/16 14:51:06","The main experiment item","yes","m","W:\Sussex\Consciousness and control\Exp 1 - stroop suggestion and PCE\Methods\Palfi_script","no","mono","no","18","no","black","no","Ok","NA","no","Female","768","legacy","C:/Users/User/Dropbox/Sussex/Consciousness and control/Exp 1 - stroop suggestion and PCE/Methods/Palfi_script/laptop_size/subject-9_IC.csv","legacy","Interactive Ising","3.0.2","0","m","m","space","NA","886","886","6227","NA","2","legacy","1024","2","48000","-16","experiment","9","odd","NA","261562","76372","139235","67899","410577","410005","410542","411466","412455","255333","NA","255334","54643","411703","410040","NA","3912","NA","NA","386236","3912","412905","NA","142431","410002","410577","Stroop IC","85","148682","90","yes","1366","BLUE"
"107","94.5054945055","yes","94.5054945055","21","1640","1640","#ffffff","no","I","v;b;n;m","legacy","I have read and understood the information shown above","legacy","legacy","#ffef36","0","con","uniform","1","1","1","NA","0","0","0","0","0","86","86","86","86","86","0","0","5","0","86","86","0","0","NA","0","86","0","86","NA","0","86","86","12/07/16 14:51:06","The main experiment item","yes","m","W:\Sussex\Consciousness and control\Exp 1 - stroop suggestion and PCE\Methods\Palfi_script","no","mono","no","18","no","black","no","Ok","NA","no","Female","768","legacy","C:/Users/User/Dropbox/Sussex/Consciousness and control/Exp 1 - stroop suggestion and PCE/Methods/Palfi_script/laptop_size/subject-9_IC.csv","legacy","Interactive Ising","3.0.2","0","m","m","space","NA","565","565","6227","NA","2","legacy","1024","2","48000","-16","experiment","9","odd","NA","261562","76372","139235","67899","413659","413087","413624","414227","415215","255333","NA","255334","54643","414463","413122","NA","3912","NA","NA","386236","3912","415665","NA","142431","413085","413659","Stroop IC","86","149247","91","yes","1366","YELLOW"
"32","93.4782608696","yes","93.4782608696","21","1640","1640","#ffffff","no","I","v;b;n;m","legacy","I have read and understood the information shown above","legacy","legacy","blue","0","inc","uniform","0","0","1","NA","0","0","0","0","0","87","87","87","87","87","0","0","5","0","87","87","0","0","NA","0","87","0","87","NA","0","87","87","12/07/16 14:51:06","The main experiment item","yes","b","W:\Sussex\Consciousness and control\Exp 1 - stroop suggestion and PCE\Methods\Palfi_script","no","mono","no","18","no","black","no","Ok","NA","no","Female","768","legacy","C:/Users/User/Dropbox/Sussex/Consciousness and control/Exp 1 - stroop suggestion and PCE/Methods/Palfi_script/laptop_size/subject-9_IC.csv","legacy","Interactive Ising","3.0.2","0","v","v","space","NA","1651","1651","6227","NA","2","legacy","1024","2","48000","-16","experiment","9","odd","NA","261562","76372","139235","67899","416415","415843","416380","418069","419058","255333","NA","255334","54643","414463","415878","NA","3912","NA","NA","418306","3912","419508","NA","142431","415841","416415","Stroop IC","86","150898","92","yes","1366","RED"
